[{"success":true,"timeout":false,"failed_images":[],"failed_audio":[],"failed_video":[],"trial_type":"preload","trial_index":0,"time_elapsed":2411,"internal_node_id":"0.0-0.0"},{"rt":17626,"stimulus":["<h2>Noisy background image classification</h2><p>In this experiment you will briefly see images on top of colored squares of various sizes.</p><p>Your task is to report what each image is, selecting \"None of the Above\" if none of the given options are correct.</p> <p>The possible options are <strong>Boat</strong>, <strong>Broccoli</strong>, <strong>Car</strong>, <strong>Cat</strong>, <strong>Dog</strong>, <strong>Human</strong>, <strong>Tree</strong>, and <strong>None of the Above</strong>"],"response":0,"trial_type":"html-button-response","trial_index":1,"time_elapsed":20040,"internal_node_id":"0.0-1.0"},{"rt":3727,"stimulus":"images/Boat/With_Backgrounds/difficulty5_image3.png","response":0,"category":"Boat","background_difficulty":"5","image_path":"images/Boat/With_Backgrounds/difficulty5_image3.png","trial_type":"image-button-response","trial_index":2,"time_elapsed":23772,"internal_node_id":"0.0-2.0-0.0"},{"rt":1435,"stimulus":"images/Cat/With_Backgrounds/difficulty5_image7.png","response":3,"category":"Cat","background_difficulty":"5","image_path":"images/Cat/With_Backgrounds/difficulty5_image7.png","trial_type":"image-button-response","trial_index":3,"time_elapsed":25210,"internal_node_id":"0.0-2.0-0.1"},{"rt":1550,"stimulus":"images/Broccoli/With_Backgrounds/difficulty0_image6.png","response":1,"category":"Broccoli","background_difficulty":"0","image_path":"images/Broccoli/With_Backgrounds/difficulty0_image6.png","trial_type":"image-button-response","trial_index":4,"time_elapsed":26762,"internal_node_id":"0.0-2.0-0.2"},{"rt":1662,"stimulus":"images/Car/With_Backgrounds/difficulty6_image5.png","response":2,"category":"Car","background_difficulty":"6","image_path":"images/Car/With_Backgrounds/difficulty6_image5.png","trial_type":"image-button-response","trial_index":5,"time_elapsed":28425,"internal_node_id":"0.0-2.0-0.3"},{"rt":1963,"stimulus":"images/Tree/With_Backgrounds/difficulty0_image8.png","response":6,"category":"Tree","background_difficulty":"0","image_path":"images/Tree/With_Backgrounds/difficulty0_image8.png","trial_type":"image-button-response","trial_index":6,"time_elapsed":30390,"internal_node_id":"0.0-2.0-0.4"},{"rt":1303,"stimulus":"images/Cat/With_Backgrounds/difficulty4_image2.png","response":3,"category":"Cat","background_difficulty":"4","image_path":"images/Cat/With_Backgrounds/difficulty4_image2.png","trial_type":"image-button-response","trial_index":7,"time_elapsed":31696,"internal_node_id":"0.0-2.0-0.5"},{"rt":1262,"stimulus":"images/Dog/With_Backgrounds/difficulty5_image9.png","response":4,"category":"Dog","background_difficulty":"5","image_path":"images/Dog/With_Backgrounds/difficulty5_image9.png","trial_type":"image-button-response","trial_index":8,"time_elapsed":32960,"internal_node_id":"0.0-2.0-0.6"},{"rt":1519,"stimulus":"images/Broccoli/With_Backgrounds/difficulty1_image3.png","response":1,"category":"Broccoli","background_difficulty":"1","image_path":"images/Broccoli/With_Backgrounds/difficulty1_image3.png","trial_type":"image-button-response","trial_index":9,"time_elapsed":34481,"internal_node_id":"0.0-2.0-0.7"},{"rt":1359,"stimulus":"images/Car/With_Backgrounds/difficulty5_image0.png","response":2,"category":"Car","background_difficulty":"5","image_path":"images/Car/With_Backgrounds/difficulty5_image0.png","trial_type":"image-button-response","trial_index":10,"time_elapsed":35841,"internal_node_id":"0.0-2.0-0.8"},{"rt":1493,"stimulus":"images/Boat/With_Backgrounds/difficulty6_image9.png","response":0,"category":"Boat","background_difficulty":"6","image_path":"images/Boat/With_Backgrounds/difficulty6_image9.png","trial_type":"image-button-response","trial_index":11,"time_elapsed":37336,"internal_node_id":"0.0-2.0-0.9"},{"rt":1351,"stimulus":"images/Cat/With_Backgrounds/difficulty2_image8.png","response":3,"category":"Cat","background_difficulty":"2","image_path":"images/Cat/With_Backgrounds/difficulty2_image8.png","trial_type":"image-button-response","trial_index":12,"time_elapsed":38689,"internal_node_id":"0.0-2.0-0.10"},{"rt":1209,"stimulus":"images/Car/With_Backgrounds/difficulty1_image1.png","response":2,"category":"Car","background_difficulty":"1","image_path":"images/Car/With_Backgrounds/difficulty1_image1.png","trial_type":"image-button-response","trial_index":13,"time_elapsed":39900,"internal_node_id":"0.0-2.0-0.11"},{"rt":1235,"stimulus":"images/Car/With_Backgrounds/difficulty2_image6.png","response":2,"category":"Car","background_difficulty":"2","image_path":"images/Car/With_Backgrounds/difficulty2_image6.png","trial_type":"image-button-response","trial_index":14,"time_elapsed":41137,"internal_node_id":"0.0-2.0-0.12"},{"rt":1746,"stimulus":"images/Tree/With_Backgrounds/difficulty2_image2.png","response":6,"category":"Tree","background_difficulty":"2","image_path":"images/Tree/With_Backgrounds/difficulty2_image2.png","trial_type":"image-button-response","trial_index":15,"time_elapsed":42884,"internal_node_id":"0.0-2.0-0.13"},{"rt":2320,"stimulus":"images/Other/With_Backgrounds/difficulty1_image8.png","response":7,"category":"Other","background_difficulty":"1","image_path":"images/Other/With_Backgrounds/difficulty1_image8.png","trial_type":"image-button-response","trial_index":16,"time_elapsed":45206,"internal_node_id":"0.0-2.0-0.14"},{"rt":1336,"stimulus":"images/Other/With_Backgrounds/difficulty2_image6.png","response":7,"category":"Other","background_difficulty":"2","image_path":"images/Other/With_Backgrounds/difficulty2_image6.png","trial_type":"image-button-response","trial_index":17,"time_elapsed":46544,"internal_node_id":"0.0-2.0-0.15"},{"rt":1150,"stimulus":"images/Broccoli/With_Backgrounds/difficulty5_image2.png","response":1,"category":"Broccoli","background_difficulty":"5","image_path":"images/Broccoli/With_Backgrounds/difficulty5_image2.png","trial_type":"image-button-response","trial_index":18,"time_elapsed":47695,"internal_node_id":"0.0-2.0-0.16"},{"rt":1483,"stimulus":"images/Tree/With_Backgrounds/difficulty8_image1.png","response":6,"category":"Tree","background_difficulty":"8","image_path":"images/Tree/With_Backgrounds/difficulty8_image1.png","trial_type":"image-button-response","trial_index":19,"time_elapsed":49180,"internal_node_id":"0.0-2.0-0.17"},{"rt":1398,"stimulus":"images/Human/With_Backgrounds/difficulty1_image5.png","response":5,"category":"Human","background_difficulty":"1","image_path":"images/Human/With_Backgrounds/difficulty1_image5.png","trial_type":"image-button-response","trial_index":20,"time_elapsed":50579,"internal_node_id":"0.0-2.0-0.18"},{"rt":1633,"stimulus":"images/Human/With_Backgrounds/difficulty4_image6.png","response":5,"category":"Human","background_difficulty":"4","image_path":"images/Human/With_Backgrounds/difficulty4_image6.png","trial_type":"image-button-response","trial_index":21,"time_elapsed":52214,"internal_node_id":"0.0-2.0-0.19"},{"rt":1432,"stimulus":"images/Car/With_Backgrounds/difficulty3_image4.png","response":2,"category":"Car","background_difficulty":"3","image_path":"images/Car/With_Backgrounds/difficulty3_image4.png","trial_type":"image-button-response","trial_index":22,"time_elapsed":53648,"internal_node_id":"0.0-2.0-0.20"},{"rt":1180,"stimulus":"images/Boat/With_Backgrounds/difficulty7_image8.png","response":0,"category":"Boat","background_difficulty":"7","image_path":"images/Boat/With_Backgrounds/difficulty7_image8.png","trial_type":"image-button-response","trial_index":23,"time_elapsed":54829,"internal_node_id":"0.0-2.0-0.21"},{"rt":1273,"stimulus":"images/Human/With_Backgrounds/difficulty8_image8.png","response":5,"category":"Human","background_difficulty":"8","image_path":"images/Human/With_Backgrounds/difficulty8_image8.png","trial_type":"image-button-response","trial_index":24,"time_elapsed":56104,"internal_node_id":"0.0-2.0-0.22"},{"rt":1546,"stimulus":"images/Broccoli/With_Backgrounds/difficulty7_image5.png","response":1,"category":"Broccoli","background_difficulty":"7","image_path":"images/Broccoli/With_Backgrounds/difficulty7_image5.png","trial_type":"image-button-response","trial_index":25,"time_elapsed":57652,"internal_node_id":"0.0-2.0-0.23"},{"rt":1830,"stimulus":"images/Human/With_Backgrounds/difficulty3_image4.png","response":5,"category":"Human","background_difficulty":"3","image_path":"images/Human/With_Backgrounds/difficulty3_image4.png","trial_type":"image-button-response","trial_index":26,"time_elapsed":59484,"internal_node_id":"0.0-2.0-0.24"},{"rt":1280,"stimulus":"images/Human/With_Backgrounds/difficulty7_image2.png","response":5,"category":"Human","background_difficulty":"7","image_path":"images/Human/With_Backgrounds/difficulty7_image2.png","trial_type":"image-button-response","trial_index":27,"time_elapsed":60766,"internal_node_id":"0.0-2.0-0.25"},{"rt":1442,"stimulus":"images/Dog/With_Backgrounds/difficulty1_image7.png","response":4,"category":"Dog","background_difficulty":"1","image_path":"images/Dog/With_Backgrounds/difficulty1_image7.png","trial_type":"image-button-response","trial_index":28,"time_elapsed":62210,"internal_node_id":"0.0-2.0-0.26"},{"rt":1140,"stimulus":"images/Dog/With_Backgrounds/difficulty2_image4.png","response":4,"category":"Dog","background_difficulty":"2","image_path":"images/Dog/With_Backgrounds/difficulty2_image4.png","trial_type":"image-button-response","trial_index":29,"time_elapsed":63352,"internal_node_id":"0.0-2.0-0.27"},{"rt":1088,"stimulus":"images/Dog/With_Backgrounds/difficulty3_image2.png","response":4,"category":"Dog","background_difficulty":"3","image_path":"images/Dog/With_Backgrounds/difficulty3_image2.png","trial_type":"image-button-response","trial_index":30,"time_elapsed":64442,"internal_node_id":"0.0-2.0-0.28"},{"rt":1706,"stimulus":"images/Car/With_Backgrounds/difficulty4_image7.png","response":2,"category":"Car","background_difficulty":"4","image_path":"images/Car/With_Backgrounds/difficulty4_image7.png","trial_type":"image-button-response","trial_index":31,"time_elapsed":66150,"internal_node_id":"0.0-2.0-0.29"},{"rt":1346,"stimulus":"images/Cat/With_Backgrounds/difficulty7_image6.png","response":3,"category":"Cat","background_difficulty":"7","image_path":"images/Cat/With_Backgrounds/difficulty7_image6.png","trial_type":"image-button-response","trial_index":32,"time_elapsed":67498,"internal_node_id":"0.0-2.0-0.30"},{"rt":1326,"stimulus":"images/Tree/With_Backgrounds/difficulty5_image4.png","response":6,"category":"Tree","background_difficulty":"5","image_path":"images/Tree/With_Backgrounds/difficulty5_image4.png","trial_type":"image-button-response","trial_index":33,"time_elapsed":68826,"internal_node_id":"0.0-2.0-0.31"},{"rt":1048,"stimulus":"images/Boat/With_Backgrounds/difficulty0_image1.png","response":0,"category":"Boat","background_difficulty":"0","image_path":"images/Boat/With_Backgrounds/difficulty0_image1.png","trial_type":"image-button-response","trial_index":34,"time_elapsed":69876,"internal_node_id":"0.0-2.0-0.32"},{"rt":1519,"stimulus":"images/Cat/With_Backgrounds/difficulty3_image5.png","response":3,"category":"Cat","background_difficulty":"3","image_path":"images/Cat/With_Backgrounds/difficulty3_image5.png","trial_type":"image-button-response","trial_index":35,"time_elapsed":71397,"internal_node_id":"0.0-2.0-0.33"},{"rt":1054,"stimulus":"images/Human/With_Backgrounds/difficulty2_image3.png","response":5,"category":"Human","background_difficulty":"2","image_path":"images/Human/With_Backgrounds/difficulty2_image3.png","trial_type":"image-button-response","trial_index":36,"time_elapsed":72452,"internal_node_id":"0.0-2.0-0.34"},{"rt":1156,"stimulus":"images/Cat/With_Backgrounds/difficulty8_image9.png","response":3,"category":"Cat","background_difficulty":"8","image_path":"images/Cat/With_Backgrounds/difficulty8_image9.png","trial_type":"image-button-response","trial_index":37,"time_elapsed":73610,"internal_node_id":"0.0-2.0-0.35"},{"rt":1204,"stimulus":"images/Human/With_Backgrounds/difficulty0_image7.png","response":5,"category":"Human","background_difficulty":"0","image_path":"images/Human/With_Backgrounds/difficulty0_image7.png","trial_type":"image-button-response","trial_index":38,"time_elapsed":74816,"internal_node_id":"0.0-2.0-0.36"},{"rt":1382,"stimulus":"images/Dog/With_Backgrounds/difficulty0_image6.png","response":4,"category":"Dog","background_difficulty":"0","image_path":"images/Dog/With_Backgrounds/difficulty0_image6.png","trial_type":"image-button-response","trial_index":39,"time_elapsed":76200,"internal_node_id":"0.0-2.0-0.37"},{"rt":1075,"stimulus":"images/Dog/With_Backgrounds/difficulty6_image3.png","response":4,"category":"Dog","background_difficulty":"6","image_path":"images/Dog/With_Backgrounds/difficulty6_image3.png","trial_type":"image-button-response","trial_index":40,"time_elapsed":77278,"internal_node_id":"0.0-2.0-0.38"},{"rt":1906,"stimulus":"images/Cat/With_Backgrounds/difficulty6_image3.png","response":3,"category":"Cat","background_difficulty":"6","image_path":"images/Cat/With_Backgrounds/difficulty6_image3.png","trial_type":"image-button-response","trial_index":41,"time_elapsed":79186,"internal_node_id":"0.0-2.0-0.39"},{"rt":2128,"stimulus":"images/Broccoli/With_Backgrounds/difficulty8_image0.png","response":1,"category":"Broccoli","background_difficulty":"8","image_path":"images/Broccoli/With_Backgrounds/difficulty8_image0.png","trial_type":"image-button-response","trial_index":42,"time_elapsed":81315,"internal_node_id":"0.0-2.0-0.40"},{"rt":2464,"stimulus":"images/Other/With_Backgrounds/difficulty7_image1.png","response":7,"category":"Other","background_difficulty":"7","image_path":"images/Other/With_Backgrounds/difficulty7_image1.png","trial_type":"image-button-response","trial_index":43,"time_elapsed":83781,"internal_node_id":"0.0-2.0-0.41"},{"rt":1653,"stimulus":"images/Car/With_Backgrounds/difficulty0_image8.png","response":2,"category":"Car","background_difficulty":"0","image_path":"images/Car/With_Backgrounds/difficulty0_image8.png","trial_type":"image-button-response","trial_index":44,"time_elapsed":85435,"internal_node_id":"0.0-2.0-0.42"},{"rt":1159,"stimulus":"images/Tree/With_Backgrounds/difficulty7_image3.png","response":6,"category":"Tree","background_difficulty":"7","image_path":"images/Tree/With_Backgrounds/difficulty7_image3.png","trial_type":"image-button-response","trial_index":45,"time_elapsed":86596,"internal_node_id":"0.0-2.0-0.43"},{"rt":1593,"stimulus":"images/Other/With_Backgrounds/difficulty0_image4.png","response":7,"category":"Other","background_difficulty":"0","image_path":"images/Other/With_Backgrounds/difficulty0_image4.png","trial_type":"image-button-response","trial_index":46,"time_elapsed":88192,"internal_node_id":"0.0-2.0-0.44"},{"rt":1284,"stimulus":"images/Other/With_Backgrounds/difficulty6_image2.png","response":7,"category":"Other","background_difficulty":"6","image_path":"images/Other/With_Backgrounds/difficulty6_image2.png","trial_type":"image-button-response","trial_index":47,"time_elapsed":89478,"internal_node_id":"0.0-2.0-0.45"},{"rt":1260,"stimulus":"images/Dog/With_Backgrounds/difficulty7_image0.png","response":4,"category":"Dog","background_difficulty":"7","image_path":"images/Dog/With_Backgrounds/difficulty7_image0.png","trial_type":"image-button-response","trial_index":48,"time_elapsed":90740,"internal_node_id":"0.0-2.0-0.46"},{"rt":1430,"stimulus":"images/Boat/With_Backgrounds/difficulty3_image7.png","response":0,"category":"Boat","background_difficulty":"3","image_path":"images/Boat/With_Backgrounds/difficulty3_image7.png","trial_type":"image-button-response","trial_index":49,"time_elapsed":92172,"internal_node_id":"0.0-2.0-0.47"},{"rt":1124,"stimulus":"images/Other/With_Backgrounds/difficulty8_image3.png","response":7,"category":"Other","background_difficulty":"8","image_path":"images/Other/With_Backgrounds/difficulty8_image3.png","trial_type":"image-button-response","trial_index":50,"time_elapsed":93298,"internal_node_id":"0.0-2.0-0.48"},{"rt":1291,"stimulus":"images/Cat/With_Backgrounds/difficulty0_image4.png","response":3,"category":"Cat","background_difficulty":"0","image_path":"images/Cat/With_Backgrounds/difficulty0_image4.png","trial_type":"image-button-response","trial_index":51,"time_elapsed":94591,"internal_node_id":"0.0-2.0-0.49"},{"rt":1154,"stimulus":"images/Human/With_Backgrounds/difficulty6_image9.png","response":5,"category":"Human","background_difficulty":"6","image_path":"images/Human/With_Backgrounds/difficulty6_image9.png","trial_type":"image-button-response","trial_index":52,"time_elapsed":95748,"internal_node_id":"0.0-2.0-0.50"},{"rt":1240,"stimulus":"images/Other/With_Backgrounds/difficulty3_image9.png","response":7,"category":"Other","background_difficulty":"3","image_path":"images/Other/With_Backgrounds/difficulty3_image9.png","trial_type":"image-button-response","trial_index":53,"time_elapsed":96990,"internal_node_id":"0.0-2.0-0.51"},{"rt":1551,"stimulus":"images/Broccoli/With_Backgrounds/difficulty3_image4.png","response":1,"category":"Broccoli","background_difficulty":"3","image_path":"images/Broccoli/With_Backgrounds/difficulty3_image4.png","trial_type":"image-button-response","trial_index":54,"time_elapsed":98543,"internal_node_id":"0.0-2.0-0.52"},{"rt":1307,"stimulus":"images/Car/With_Backgrounds/difficulty7_image3.png","response":2,"category":"Car","background_difficulty":"7","image_path":"images/Car/With_Backgrounds/difficulty7_image3.png","trial_type":"image-button-response","trial_index":55,"time_elapsed":99852,"internal_node_id":"0.0-2.0-0.53"},{"rt":1167,"stimulus":"images/Boat/With_Backgrounds/difficulty1_image4.png","response":0,"category":"Boat","background_difficulty":"1","image_path":"images/Boat/With_Backgrounds/difficulty1_image4.png","trial_type":"image-button-response","trial_index":56,"time_elapsed":101020,"internal_node_id":"0.0-2.0-0.54"},{"rt":1598,"stimulus":"images/Boat/With_Backgrounds/difficulty4_image2.png","response":0,"category":"Boat","background_difficulty":"4","image_path":"images/Boat/With_Backgrounds/difficulty4_image2.png","trial_type":"image-button-response","trial_index":57,"time_elapsed":102620,"internal_node_id":"0.0-2.0-0.55"},{"rt":1554,"stimulus":"images/Broccoli/With_Backgrounds/difficulty6_image8.png","response":1,"category":"Broccoli","background_difficulty":"6","image_path":"images/Broccoli/With_Backgrounds/difficulty6_image8.png","trial_type":"image-button-response","trial_index":58,"time_elapsed":104176,"internal_node_id":"0.0-2.0-0.56"},{"rt":1216,"stimulus":"images/Tree/With_Backgrounds/difficulty6_image7.png","response":6,"category":"Tree","background_difficulty":"6","image_path":"images/Tree/With_Backgrounds/difficulty6_image7.png","trial_type":"image-button-response","trial_index":59,"time_elapsed":105394,"internal_node_id":"0.0-2.0-0.57"},{"rt":1500,"stimulus":"images/Car/With_Backgrounds/difficulty8_image9.png","response":2,"category":"Car","background_difficulty":"8","image_path":"images/Car/With_Backgrounds/difficulty8_image9.png","trial_type":"image-button-response","trial_index":60,"time_elapsed":106895,"internal_node_id":"0.0-2.0-0.58"},{"rt":1479,"stimulus":"images/Dog/With_Backgrounds/difficulty4_image1.png","response":4,"category":"Dog","background_difficulty":"4","image_path":"images/Dog/With_Backgrounds/difficulty4_image1.png","trial_type":"image-button-response","trial_index":61,"time_elapsed":108376,"internal_node_id":"0.0-2.0-0.59"},{"rt":1790,"stimulus":"images/Tree/With_Backgrounds/difficulty3_image5.png","response":6,"category":"Tree","background_difficulty":"3","image_path":"images/Tree/With_Backgrounds/difficulty3_image5.png","trial_type":"image-button-response","trial_index":62,"time_elapsed":110168,"internal_node_id":"0.0-2.0-0.60"},{"rt":1305,"stimulus":"images/Boat/With_Backgrounds/difficulty2_image0.png","response":0,"category":"Boat","background_difficulty":"2","image_path":"images/Boat/With_Backgrounds/difficulty2_image0.png","trial_type":"image-button-response","trial_index":63,"time_elapsed":111475,"internal_node_id":"0.0-2.0-0.61"},{"rt":1473,"stimulus":"images/Broccoli/With_Backgrounds/difficulty4_image7.png","response":1,"category":"Broccoli","background_difficulty":"4","image_path":"images/Broccoli/With_Backgrounds/difficulty4_image7.png","trial_type":"image-button-response","trial_index":64,"time_elapsed":112949,"internal_node_id":"0.0-2.0-0.62"},{"rt":1150,"stimulus":"images/Other/With_Backgrounds/difficulty5_image5.png","response":7,"category":"Other","background_difficulty":"5","image_path":"images/Other/With_Backgrounds/difficulty5_image5.png","trial_type":"image-button-response","trial_index":65,"time_elapsed":114102,"internal_node_id":"0.0-2.0-0.63"},{"rt":925,"stimulus":"images/Other/With_Backgrounds/difficulty4_image7.png","response":7,"category":"Other","background_difficulty":"4","image_path":"images/Other/With_Backgrounds/difficulty4_image7.png","trial_type":"image-button-response","trial_index":66,"time_elapsed":115029,"internal_node_id":"0.0-2.0-0.64"},{"rt":1009,"stimulus":"images/Boat/With_Backgrounds/difficulty8_image6.png","response":0,"category":"Boat","background_difficulty":"8","image_path":"images/Boat/With_Backgrounds/difficulty8_image6.png","trial_type":"image-button-response","trial_index":67,"time_elapsed":116040,"internal_node_id":"0.0-2.0-0.65"},{"rt":1170,"stimulus":"images/Broccoli/With_Backgrounds/difficulty2_image1.png","response":1,"category":"Broccoli","background_difficulty":"2","image_path":"images/Broccoli/With_Backgrounds/difficulty2_image1.png","trial_type":"image-button-response","trial_index":68,"time_elapsed":117212,"internal_node_id":"0.0-2.0-0.66"},{"rt":1184,"stimulus":"images/Tree/With_Backgrounds/difficulty4_image9.png","response":6,"category":"Tree","background_difficulty":"4","image_path":"images/Tree/With_Backgrounds/difficulty4_image9.png","trial_type":"image-button-response","trial_index":69,"time_elapsed":118398,"internal_node_id":"0.0-2.0-0.67"},{"rt":1050,"stimulus":"images/Human/With_Backgrounds/difficulty5_image1.png","response":5,"category":"Human","background_difficulty":"5","image_path":"images/Human/With_Backgrounds/difficulty5_image1.png","trial_type":"image-button-response","trial_index":70,"time_elapsed":119450,"internal_node_id":"0.0-2.0-0.68"},{"rt":1287,"stimulus":"images/Tree/With_Backgrounds/difficulty1_image0.png","response":6,"category":"Tree","background_difficulty":"1","image_path":"images/Tree/With_Backgrounds/difficulty1_image0.png","trial_type":"image-button-response","trial_index":71,"time_elapsed":120738,"internal_node_id":"0.0-2.0-0.69"},{"rt":1284,"stimulus":"images/Dog/With_Backgrounds/difficulty8_image5.png","response":4,"category":"Dog","background_difficulty":"8","image_path":"images/Dog/With_Backgrounds/difficulty8_image5.png","trial_type":"image-button-response","trial_index":72,"time_elapsed":122024,"internal_node_id":"0.0-2.0-0.70"},{"rt":1118,"stimulus":"images/Cat/With_Backgrounds/difficulty1_image1.png","response":3,"category":"Cat","background_difficulty":"1","image_path":"images/Cat/With_Backgrounds/difficulty1_image1.png","trial_type":"image-button-response","trial_index":73,"time_elapsed":123143,"internal_node_id":"0.0-2.0-0.71"},{"rt":1264,"stimulus":["<h2>Press the button below to end experiment.</h2><p>Thank you for participating!</p>"],"response":0,"trial_type":"html-button-response","trial_index":74,"time_elapsed":124408,"internal_node_id":"0.0-3.0"}]