[{"success":true,"timeout":false,"failed_images":[],"failed_audio":[],"failed_video":[],"trial_type":"preload","trial_index":0,"time_elapsed":941,"internal_node_id":"0.0-0.0"},{"rt":932463,"stimulus":["<h2>Noisy background image classification</h2><p>In this experiment you will briefly see images on top of colored squares of various sizes.</p><p>Your task is to report what each image is, selecting \"None of the Above\" if none of the given options are correct.</p> <p>The possible options are <strong>Boat</strong>, <strong>Broccoli</strong>, <strong>Car</strong>, <strong>Cat</strong>, <strong>Dog</strong>, <strong>Human</strong>, <strong>Tree</strong>, and <strong>None of the Above</strong>"],"response":0,"trial_type":"html-button-response","trial_index":1,"time_elapsed":933405,"internal_node_id":"0.0-1.0"},{"rt":4424,"stimulus":"images/Other/With_Backgrounds/difficulty0_image7.png","response":7,"category":"Other","background_difficulty":"0","image_path":"images/Other/With_Backgrounds/difficulty0_image7.png","trial_type":"image-button-response","trial_index":2,"time_elapsed":937837,"internal_node_id":"0.0-2.0-0.0"},{"rt":1233,"stimulus":"images/Tree/With_Backgrounds/difficulty6_image0.png","response":6,"category":"Tree","background_difficulty":"6","image_path":"images/Tree/With_Backgrounds/difficulty6_image0.png","trial_type":"image-button-response","trial_index":3,"time_elapsed":939074,"internal_node_id":"0.0-2.0-0.1"},{"rt":1818,"stimulus":"images/Cat/With_Backgrounds/difficulty2_image7.png","response":3,"category":"Cat","background_difficulty":"2","image_path":"images/Cat/With_Backgrounds/difficulty2_image7.png","trial_type":"image-button-response","trial_index":4,"time_elapsed":940896,"internal_node_id":"0.0-2.0-0.2"},{"rt":1303,"stimulus":"images/Tree/With_Backgrounds/difficulty4_image1.png","response":6,"category":"Tree","background_difficulty":"4","image_path":"images/Tree/With_Backgrounds/difficulty4_image1.png","trial_type":"image-button-response","trial_index":5,"time_elapsed":942202,"internal_node_id":"0.0-2.0-0.3"},{"rt":1142,"stimulus":"images/Dog/With_Backgrounds/difficulty6_image0.png","response":4,"category":"Dog","background_difficulty":"6","image_path":"images/Dog/With_Backgrounds/difficulty6_image0.png","trial_type":"image-button-response","trial_index":6,"time_elapsed":943348,"internal_node_id":"0.0-2.0-0.4"},{"rt":1758,"stimulus":"images/Cat/With_Backgrounds/difficulty8_image4.png","response":3,"category":"Cat","background_difficulty":"8","image_path":"images/Cat/With_Backgrounds/difficulty8_image4.png","trial_type":"image-button-response","trial_index":7,"time_elapsed":945110,"internal_node_id":"0.0-2.0-0.5"},{"rt":1447,"stimulus":"images/Tree/With_Backgrounds/difficulty7_image3.png","response":6,"category":"Tree","background_difficulty":"7","image_path":"images/Tree/With_Backgrounds/difficulty7_image3.png","trial_type":"image-button-response","trial_index":8,"time_elapsed":946560,"internal_node_id":"0.0-2.0-0.6"},{"rt":1434,"stimulus":"images/Boat/With_Backgrounds/difficulty1_image8.png","response":0,"category":"Boat","background_difficulty":"1","image_path":"images/Boat/With_Backgrounds/difficulty1_image8.png","trial_type":"image-button-response","trial_index":9,"time_elapsed":947996,"internal_node_id":"0.0-2.0-0.7"},{"rt":726,"stimulus":"images/Broccoli/With_Backgrounds/difficulty7_image4.png","response":1,"category":"Broccoli","background_difficulty":"7","image_path":"images/Broccoli/With_Backgrounds/difficulty7_image4.png","trial_type":"image-button-response","trial_index":10,"time_elapsed":948728,"internal_node_id":"0.0-2.0-0.8"},{"rt":1242,"stimulus":"images/Dog/With_Backgrounds/difficulty1_image9.png","response":4,"category":"Dog","background_difficulty":"1","image_path":"images/Dog/With_Backgrounds/difficulty1_image9.png","trial_type":"image-button-response","trial_index":11,"time_elapsed":949975,"internal_node_id":"0.0-2.0-0.9"},{"rt":907,"stimulus":"images/Dog/With_Backgrounds/difficulty2_image4.png","response":4,"category":"Dog","background_difficulty":"2","image_path":"images/Dog/With_Backgrounds/difficulty2_image4.png","trial_type":"image-button-response","trial_index":12,"time_elapsed":950885,"internal_node_id":"0.0-2.0-0.10"},{"rt":1077,"stimulus":"images/Car/With_Backgrounds/difficulty6_image7.png","response":2,"category":"Car","background_difficulty":"6","image_path":"images/Car/With_Backgrounds/difficulty6_image7.png","trial_type":"image-button-response","trial_index":13,"time_elapsed":951965,"internal_node_id":"0.0-2.0-0.11"},{"rt":1190,"stimulus":"images/Human/With_Backgrounds/difficulty4_image4.png","response":5,"category":"Human","background_difficulty":"4","image_path":"images/Human/With_Backgrounds/difficulty4_image4.png","trial_type":"image-button-response","trial_index":14,"time_elapsed":953160,"internal_node_id":"0.0-2.0-0.12"},{"rt":872,"stimulus":"images/Dog/With_Backgrounds/difficulty0_image1.png","response":4,"category":"Dog","background_difficulty":"0","image_path":"images/Dog/With_Backgrounds/difficulty0_image1.png","trial_type":"image-button-response","trial_index":15,"time_elapsed":954036,"internal_node_id":"0.0-2.0-0.13"},{"rt":2517,"stimulus":"images/Other/With_Backgrounds/difficulty6_image5.png","response":7,"category":"Other","background_difficulty":"6","image_path":"images/Other/With_Backgrounds/difficulty6_image5.png","trial_type":"image-button-response","trial_index":16,"time_elapsed":956558,"internal_node_id":"0.0-2.0-0.14"},{"rt":1465,"stimulus":"images/Dog/With_Backgrounds/difficulty3_image2.png","response":4,"category":"Dog","background_difficulty":"3","image_path":"images/Dog/With_Backgrounds/difficulty3_image2.png","trial_type":"image-button-response","trial_index":17,"time_elapsed":958025,"internal_node_id":"0.0-2.0-0.15"},{"rt":852,"stimulus":"images/Other/With_Backgrounds/difficulty7_image6.png","response":7,"category":"Other","background_difficulty":"7","image_path":"images/Other/With_Backgrounds/difficulty7_image6.png","trial_type":"image-button-response","trial_index":18,"time_elapsed":958881,"internal_node_id":"0.0-2.0-0.16"},{"rt":1442,"stimulus":"images/Car/With_Backgrounds/difficulty4_image4.png","response":2,"category":"Car","background_difficulty":"4","image_path":"images/Car/With_Backgrounds/difficulty4_image4.png","trial_type":"image-button-response","trial_index":19,"time_elapsed":960326,"internal_node_id":"0.0-2.0-0.17"},{"rt":1685,"stimulus":"images/Boat/With_Backgrounds/difficulty6_image5.png","response":0,"category":"Boat","background_difficulty":"6","image_path":"images/Boat/With_Backgrounds/difficulty6_image5.png","trial_type":"image-button-response","trial_index":20,"time_elapsed":962014,"internal_node_id":"0.0-2.0-0.18"},{"rt":837,"stimulus":"images/Boat/With_Backgrounds/difficulty3_image1.png","response":0,"category":"Boat","background_difficulty":"3","image_path":"images/Boat/With_Backgrounds/difficulty3_image1.png","trial_type":"image-button-response","trial_index":21,"time_elapsed":962854,"internal_node_id":"0.0-2.0-0.19"},{"rt":1802,"stimulus":"images/Tree/With_Backgrounds/difficulty2_image9.png","response":6,"category":"Tree","background_difficulty":"2","image_path":"images/Tree/With_Backgrounds/difficulty2_image9.png","trial_type":"image-button-response","trial_index":22,"time_elapsed":964659,"internal_node_id":"0.0-2.0-0.20"},{"rt":1210,"stimulus":"images/Broccoli/With_Backgrounds/difficulty2_image7.png","response":1,"category":"Broccoli","background_difficulty":"2","image_path":"images/Broccoli/With_Backgrounds/difficulty2_image7.png","trial_type":"image-button-response","trial_index":23,"time_elapsed":965872,"internal_node_id":"0.0-2.0-0.21"},{"rt":1682,"stimulus":"images/Boat/With_Backgrounds/difficulty4_image6.png","response":0,"category":"Boat","background_difficulty":"4","image_path":"images/Boat/With_Backgrounds/difficulty4_image6.png","trial_type":"image-button-response","trial_index":24,"time_elapsed":967558,"internal_node_id":"0.0-2.0-0.22"},{"rt":1353,"stimulus":"images/Boat/With_Backgrounds/difficulty8_image9.png","response":0,"category":"Boat","background_difficulty":"8","image_path":"images/Boat/With_Backgrounds/difficulty8_image9.png","trial_type":"image-button-response","trial_index":25,"time_elapsed":968913,"internal_node_id":"0.0-2.0-0.23"},{"rt":1551,"stimulus":"images/Cat/With_Backgrounds/difficulty7_image0.png","response":3,"category":"Cat","background_difficulty":"7","image_path":"images/Cat/With_Backgrounds/difficulty7_image0.png","trial_type":"image-button-response","trial_index":26,"time_elapsed":970470,"internal_node_id":"0.0-2.0-0.24"},{"rt":1147,"stimulus":"images/Boat/With_Backgrounds/difficulty0_image2.png","response":0,"category":"Boat","background_difficulty":"0","image_path":"images/Boat/With_Backgrounds/difficulty0_image2.png","trial_type":"image-button-response","trial_index":27,"time_elapsed":971620,"internal_node_id":"0.0-2.0-0.25"},{"rt":1423,"stimulus":"images/Other/With_Backgrounds/difficulty8_image9.png","response":7,"category":"Other","background_difficulty":"8","image_path":"images/Other/With_Backgrounds/difficulty8_image9.png","trial_type":"image-button-response","trial_index":28,"time_elapsed":973046,"internal_node_id":"0.0-2.0-0.26"},{"rt":1451,"stimulus":"images/Cat/With_Backgrounds/difficulty3_image5.png","response":3,"category":"Cat","background_difficulty":"3","image_path":"images/Cat/With_Backgrounds/difficulty3_image5.png","trial_type":"image-button-response","trial_index":29,"time_elapsed":974499,"internal_node_id":"0.0-2.0-0.27"},{"rt":1235,"stimulus":"images/Car/With_Backgrounds/difficulty5_image1.png","response":2,"category":"Car","background_difficulty":"5","image_path":"images/Car/With_Backgrounds/difficulty5_image1.png","trial_type":"image-button-response","trial_index":30,"time_elapsed":975739,"internal_node_id":"0.0-2.0-0.28"},{"rt":892,"stimulus":"images/Car/With_Backgrounds/difficulty1_image5.png","response":2,"category":"Car","background_difficulty":"1","image_path":"images/Car/With_Backgrounds/difficulty1_image5.png","trial_type":"image-button-response","trial_index":31,"time_elapsed":976634,"internal_node_id":"0.0-2.0-0.29"},{"rt":1588,"stimulus":"images/Other/With_Backgrounds/difficulty3_image2.png","response":7,"category":"Other","background_difficulty":"3","image_path":"images/Other/With_Backgrounds/difficulty3_image2.png","trial_type":"image-button-response","trial_index":32,"time_elapsed":978226,"internal_node_id":"0.0-2.0-0.30"},{"rt":1663,"stimulus":"images/Broccoli/With_Backgrounds/difficulty3_image5.png","response":1,"category":"Broccoli","background_difficulty":"3","image_path":"images/Broccoli/With_Backgrounds/difficulty3_image5.png","trial_type":"image-button-response","trial_index":33,"time_elapsed":979893,"internal_node_id":"0.0-2.0-0.31"},{"rt":1021,"stimulus":"images/Human/With_Backgrounds/difficulty7_image1.png","response":5,"category":"Human","background_difficulty":"7","image_path":"images/Human/With_Backgrounds/difficulty7_image1.png","trial_type":"image-button-response","trial_index":34,"time_elapsed":980917,"internal_node_id":"0.0-2.0-0.32"},{"rt":1093,"stimulus":"images/Broccoli/With_Backgrounds/difficulty5_image0.png","response":1,"category":"Broccoli","background_difficulty":"5","image_path":"images/Broccoli/With_Backgrounds/difficulty5_image0.png","trial_type":"image-button-response","trial_index":35,"time_elapsed":982013,"internal_node_id":"0.0-2.0-0.33"},{"rt":1148,"stimulus":"images/Broccoli/With_Backgrounds/difficulty6_image9.png","response":1,"category":"Broccoli","background_difficulty":"6","image_path":"images/Broccoli/With_Backgrounds/difficulty6_image9.png","trial_type":"image-button-response","trial_index":36,"time_elapsed":983165,"internal_node_id":"0.0-2.0-0.34"},{"rt":1528,"stimulus":"images/Dog/With_Backgrounds/difficulty4_image5.png","response":4,"category":"Dog","background_difficulty":"4","image_path":"images/Dog/With_Backgrounds/difficulty4_image5.png","trial_type":"image-button-response","trial_index":37,"time_elapsed":984696,"internal_node_id":"0.0-2.0-0.35"},{"rt":1182,"stimulus":"images/Human/With_Backgrounds/difficulty5_image2.png","response":5,"category":"Human","background_difficulty":"5","image_path":"images/Human/With_Backgrounds/difficulty5_image2.png","trial_type":"image-button-response","trial_index":38,"time_elapsed":985882,"internal_node_id":"0.0-2.0-0.36"},{"rt":697,"stimulus":"images/Human/With_Backgrounds/difficulty1_image9.png","response":5,"category":"Human","background_difficulty":"1","image_path":"images/Human/With_Backgrounds/difficulty1_image9.png","trial_type":"image-button-response","trial_index":39,"time_elapsed":986583,"internal_node_id":"0.0-2.0-0.37"},{"rt":1709,"stimulus":"images/Tree/With_Backgrounds/difficulty3_image2.png","response":6,"category":"Tree","background_difficulty":"3","image_path":"images/Tree/With_Backgrounds/difficulty3_image2.png","trial_type":"image-button-response","trial_index":40,"time_elapsed":988295,"internal_node_id":"0.0-2.0-0.38"},{"rt":1632,"stimulus":"images/Boat/With_Backgrounds/difficulty5_image0.png","response":0,"category":"Boat","background_difficulty":"5","image_path":"images/Boat/With_Backgrounds/difficulty5_image0.png","trial_type":"image-button-response","trial_index":41,"time_elapsed":989930,"internal_node_id":"0.0-2.0-0.39"},{"rt":1181,"stimulus":"images/Tree/With_Backgrounds/difficulty8_image7.png","response":6,"category":"Tree","background_difficulty":"8","image_path":"images/Tree/With_Backgrounds/difficulty8_image7.png","trial_type":"image-button-response","trial_index":42,"time_elapsed":991116,"internal_node_id":"0.0-2.0-0.40"},{"rt":1278,"stimulus":"images/Boat/With_Backgrounds/difficulty7_image4.png","response":0,"category":"Boat","background_difficulty":"7","image_path":"images/Boat/With_Backgrounds/difficulty7_image4.png","trial_type":"image-button-response","trial_index":43,"time_elapsed":992398,"internal_node_id":"0.0-2.0-0.41"},{"rt":1648,"stimulus":"images/Broccoli/With_Backgrounds/difficulty0_image6.png","response":1,"category":"Broccoli","background_difficulty":"0","image_path":"images/Broccoli/With_Backgrounds/difficulty0_image6.png","trial_type":"image-button-response","trial_index":44,"time_elapsed":994050,"internal_node_id":"0.0-2.0-0.42"},{"rt":1218,"stimulus":"images/Other/With_Backgrounds/difficulty2_image0.png","response":7,"category":"Other","background_difficulty":"2","image_path":"images/Other/With_Backgrounds/difficulty2_image0.png","trial_type":"image-button-response","trial_index":45,"time_elapsed":995272,"internal_node_id":"0.0-2.0-0.43"},{"rt":2077,"stimulus":"images/Other/With_Backgrounds/difficulty1_image1.png","response":7,"category":"Other","background_difficulty":"1","image_path":"images/Other/With_Backgrounds/difficulty1_image1.png","trial_type":"image-button-response","trial_index":46,"time_elapsed":997352,"internal_node_id":"0.0-2.0-0.44"},{"rt":952,"stimulus":"images/Human/With_Backgrounds/difficulty3_image3.png","response":5,"category":"Human","background_difficulty":"3","image_path":"images/Human/With_Backgrounds/difficulty3_image3.png","trial_type":"image-button-response","trial_index":47,"time_elapsed":998307,"internal_node_id":"0.0-2.0-0.45"},{"rt":1057,"stimulus":"images/Human/With_Backgrounds/difficulty8_image5.png","response":5,"category":"Human","background_difficulty":"8","image_path":"images/Human/With_Backgrounds/difficulty8_image5.png","trial_type":"image-button-response","trial_index":48,"time_elapsed":999368,"internal_node_id":"0.0-2.0-0.46"},{"rt":1183,"stimulus":"images/Other/With_Backgrounds/difficulty5_image3.png","response":7,"category":"Other","background_difficulty":"5","image_path":"images/Other/With_Backgrounds/difficulty5_image3.png","trial_type":"image-button-response","trial_index":49,"time_elapsed":1000555,"internal_node_id":"0.0-2.0-0.47"},{"rt":1387,"stimulus":"images/Boat/With_Backgrounds/difficulty2_image3.png","response":0,"category":"Boat","background_difficulty":"2","image_path":"images/Boat/With_Backgrounds/difficulty2_image3.png","trial_type":"image-button-response","trial_index":50,"time_elapsed":1001946,"internal_node_id":"0.0-2.0-0.48"},{"rt":1051,"stimulus":"images/Dog/With_Backgrounds/difficulty7_image7.png","response":4,"category":"Dog","background_difficulty":"7","image_path":"images/Dog/With_Backgrounds/difficulty7_image7.png","trial_type":"image-button-response","trial_index":51,"time_elapsed":1003000,"internal_node_id":"0.0-2.0-0.49"},{"rt":1270,"stimulus":"images/Car/With_Backgrounds/difficulty0_image9.png","response":2,"category":"Car","background_difficulty":"0","image_path":"images/Car/With_Backgrounds/difficulty0_image9.png","trial_type":"image-button-response","trial_index":52,"time_elapsed":1004273,"internal_node_id":"0.0-2.0-0.50"},{"rt":1471,"stimulus":"images/Tree/With_Backgrounds/difficulty0_image6.png","response":6,"category":"Tree","background_difficulty":"0","image_path":"images/Tree/With_Backgrounds/difficulty0_image6.png","trial_type":"image-button-response","trial_index":53,"time_elapsed":1005748,"internal_node_id":"0.0-2.0-0.51"},{"rt":2028,"stimulus":"images/Car/With_Backgrounds/difficulty3_image3.png","response":2,"category":"Car","background_difficulty":"3","image_path":"images/Car/With_Backgrounds/difficulty3_image3.png","trial_type":"image-button-response","trial_index":54,"time_elapsed":1007779,"internal_node_id":"0.0-2.0-0.52"},{"rt":1209,"stimulus":"images/Cat/With_Backgrounds/difficulty5_image1.png","response":3,"category":"Cat","background_difficulty":"5","image_path":"images/Cat/With_Backgrounds/difficulty5_image1.png","trial_type":"image-button-response","trial_index":55,"time_elapsed":1008992,"internal_node_id":"0.0-2.0-0.53"},{"rt":1092,"stimulus":"images/Human/With_Backgrounds/difficulty6_image0.png","response":5,"category":"Human","background_difficulty":"6","image_path":"images/Human/With_Backgrounds/difficulty6_image0.png","trial_type":"image-button-response","trial_index":56,"time_elapsed":1010087,"internal_node_id":"0.0-2.0-0.54"},{"rt":1533,"stimulus":"images/Car/With_Backgrounds/difficulty2_image2.png","response":2,"category":"Car","background_difficulty":"2","image_path":"images/Car/With_Backgrounds/difficulty2_image2.png","trial_type":"image-button-response","trial_index":57,"time_elapsed":1011623,"internal_node_id":"0.0-2.0-0.55"},{"rt":893,"stimulus":"images/Dog/With_Backgrounds/difficulty5_image8.png","response":4,"category":"Dog","background_difficulty":"5","image_path":"images/Dog/With_Backgrounds/difficulty5_image8.png","trial_type":"image-button-response","trial_index":58,"time_elapsed":1012518,"internal_node_id":"0.0-2.0-0.56"},{"rt":966,"stimulus":"images/Human/With_Backgrounds/difficulty0_image8.png","response":5,"category":"Human","background_difficulty":"0","image_path":"images/Human/With_Backgrounds/difficulty0_image8.png","trial_type":"image-button-response","trial_index":59,"time_elapsed":1013487,"internal_node_id":"0.0-2.0-0.57"},{"rt":1329,"stimulus":"images/Car/With_Backgrounds/difficulty7_image0.png","response":2,"category":"Car","background_difficulty":"7","image_path":"images/Car/With_Backgrounds/difficulty7_image0.png","trial_type":"image-button-response","trial_index":60,"time_elapsed":1014820,"internal_node_id":"0.0-2.0-0.58"},{"rt":968,"stimulus":"images/Tree/With_Backgrounds/difficulty5_image4.png","response":6,"category":"Tree","background_difficulty":"5","image_path":"images/Tree/With_Backgrounds/difficulty5_image4.png","trial_type":"image-button-response","trial_index":61,"time_elapsed":1015790,"internal_node_id":"0.0-2.0-0.59"},{"rt":1087,"stimulus":"images/Cat/With_Backgrounds/difficulty4_image9.png","response":3,"category":"Cat","background_difficulty":"4","image_path":"images/Cat/With_Backgrounds/difficulty4_image9.png","trial_type":"image-button-response","trial_index":62,"time_elapsed":1016881,"internal_node_id":"0.0-2.0-0.60"},{"rt":2380,"stimulus":"images/Other/With_Backgrounds/difficulty4_image8.png","response":7,"category":"Other","background_difficulty":"4","image_path":"images/Other/With_Backgrounds/difficulty4_image8.png","trial_type":"image-button-response","trial_index":63,"time_elapsed":1019264,"internal_node_id":"0.0-2.0-0.61"},{"rt":1753,"stimulus":"images/Dog/With_Backgrounds/difficulty8_image3.png","response":4,"category":"Dog","background_difficulty":"8","image_path":"images/Dog/With_Backgrounds/difficulty8_image3.png","trial_type":"image-button-response","trial_index":64,"time_elapsed":1021020,"internal_node_id":"0.0-2.0-0.62"},{"rt":941,"stimulus":"images/Human/With_Backgrounds/difficulty2_image6.png","response":5,"category":"Human","background_difficulty":"2","image_path":"images/Human/With_Backgrounds/difficulty2_image6.png","trial_type":"image-button-response","trial_index":65,"time_elapsed":1021966,"internal_node_id":"0.0-2.0-0.63"},{"rt":1628,"stimulus":"images/Tree/With_Backgrounds/difficulty1_image5.png","response":6,"category":"Tree","background_difficulty":"1","image_path":"images/Tree/With_Backgrounds/difficulty1_image5.png","trial_type":"image-button-response","trial_index":66,"time_elapsed":1023596,"internal_node_id":"0.0-2.0-0.64"},{"rt":1542,"stimulus":"images/Car/With_Backgrounds/difficulty8_image6.png","response":2,"category":"Car","background_difficulty":"8","image_path":"images/Car/With_Backgrounds/difficulty8_image6.png","trial_type":"image-button-response","trial_index":67,"time_elapsed":1025144,"internal_node_id":"0.0-2.0-0.65"},{"rt":1247,"stimulus":"images/Cat/With_Backgrounds/difficulty6_image6.png","response":3,"category":"Cat","background_difficulty":"6","image_path":"images/Cat/With_Backgrounds/difficulty6_image6.png","trial_type":"image-button-response","trial_index":68,"time_elapsed":1026395,"internal_node_id":"0.0-2.0-0.66"},{"rt":1297,"stimulus":"images/Broccoli/With_Backgrounds/difficulty8_image8.png","response":1,"category":"Broccoli","background_difficulty":"8","image_path":"images/Broccoli/With_Backgrounds/difficulty8_image8.png","trial_type":"image-button-response","trial_index":69,"time_elapsed":1027695,"internal_node_id":"0.0-2.0-0.67"},{"rt":817,"stimulus":"images/Broccoli/With_Backgrounds/difficulty1_image1.png","response":1,"category":"Broccoli","background_difficulty":"1","image_path":"images/Broccoli/With_Backgrounds/difficulty1_image1.png","trial_type":"image-button-response","trial_index":70,"time_elapsed":1028515,"internal_node_id":"0.0-2.0-0.68"},{"rt":757,"stimulus":"images/Broccoli/With_Backgrounds/difficulty4_image2.png","response":1,"category":"Broccoli","background_difficulty":"4","image_path":"images/Broccoli/With_Backgrounds/difficulty4_image2.png","trial_type":"image-button-response","trial_index":71,"time_elapsed":1029275,"internal_node_id":"0.0-2.0-0.69"},{"rt":1474,"stimulus":"images/Cat/With_Backgrounds/difficulty1_image8.png","response":3,"category":"Cat","background_difficulty":"1","image_path":"images/Cat/With_Backgrounds/difficulty1_image8.png","trial_type":"image-button-response","trial_index":72,"time_elapsed":1030753,"internal_node_id":"0.0-2.0-0.70"},{"rt":817,"stimulus":"images/Cat/With_Backgrounds/difficulty0_image2.png","response":3,"category":"Cat","background_difficulty":"0","image_path":"images/Cat/With_Backgrounds/difficulty0_image2.png","trial_type":"image-button-response","trial_index":73,"time_elapsed":1031573,"internal_node_id":"0.0-2.0-0.71"},{"rt":1354,"stimulus":["<h2>Press the button below to end experiment.</h2><p>Thank you for participating!</p>"],"response":0,"trial_type":"html-button-response","trial_index":74,"time_elapsed":1032930,"internal_node_id":"0.0-3.0"}]