[{"success":true,"timeout":false,"failed_images":[],"failed_audio":[],"failed_video":[],"trial_type":"preload","trial_index":0,"time_elapsed":1884,"internal_node_id":"0.0-0.0"},{"rt":4922,"stimulus":["<h2>Noisy background image classification</h2><p>In this experiment you will briefly see images on top of colored squares of various sizes.</p><p>Your task is to report what each image is, selecting \"None of the Above\" if none of the given options are correct.</p> <p>The possible options are <strong>Boat</strong>, <strong>Broccoli</strong>, <strong>Car</strong>, <strong>Cat</strong>, <strong>Dog</strong>, <strong>Human</strong>, <strong>Tree</strong>, and <strong>None of the Above</strong>"],"response":0,"trial_type":"html-button-response","trial_index":1,"time_elapsed":6814,"internal_node_id":"0.0-1.0"},{"rt":1637,"stimulus":"images/Car/With_Backgrounds/difficulty2_image8.png","response":2,"category":"Car","background_difficulty":"2","image_path":"images/Car/With_Backgrounds/difficulty2_image8.png","trial_type":"image-button-response","trial_index":2,"time_elapsed":8459,"internal_node_id":"0.0-2.0-0.0"},{"rt":1796,"stimulus":"images/Tree/With_Backgrounds/difficulty5_image7.png","response":6,"category":"Tree","background_difficulty":"5","image_path":"images/Tree/With_Backgrounds/difficulty5_image7.png","trial_type":"image-button-response","trial_index":3,"time_elapsed":10266,"internal_node_id":"0.0-2.0-0.1"},{"rt":1331,"stimulus":"images/Broccoli/With_Backgrounds/difficulty8_image2.png","response":1,"category":"Broccoli","background_difficulty":"8","image_path":"images/Broccoli/With_Backgrounds/difficulty8_image2.png","trial_type":"image-button-response","trial_index":4,"time_elapsed":11609,"internal_node_id":"0.0-2.0-0.2"},{"rt":1612,"stimulus":"images/Human/With_Backgrounds/difficulty2_image3.png","response":5,"category":"Human","background_difficulty":"2","image_path":"images/Human/With_Backgrounds/difficulty2_image3.png","trial_type":"image-button-response","trial_index":5,"time_elapsed":13230,"internal_node_id":"0.0-2.0-0.3"},{"rt":1157,"stimulus":"images/Cat/With_Backgrounds/difficulty8_image1.png","response":3,"category":"Cat","background_difficulty":"8","image_path":"images/Cat/With_Backgrounds/difficulty8_image1.png","trial_type":"image-button-response","trial_index":6,"time_elapsed":14400,"internal_node_id":"0.0-2.0-0.4"},{"rt":1054,"stimulus":"images/Human/With_Backgrounds/difficulty3_image9.png","response":5,"category":"Human","background_difficulty":"3","image_path":"images/Human/With_Backgrounds/difficulty3_image9.png","trial_type":"image-button-response","trial_index":7,"time_elapsed":15466,"internal_node_id":"0.0-2.0-0.5"},{"rt":1006,"stimulus":"images/Human/With_Backgrounds/difficulty5_image2.png","response":5,"category":"Human","background_difficulty":"5","image_path":"images/Human/With_Backgrounds/difficulty5_image2.png","trial_type":"image-button-response","trial_index":8,"time_elapsed":16483,"internal_node_id":"0.0-2.0-0.6"},{"rt":2004,"stimulus":"images/Other/With_Backgrounds/difficulty6_image4.png","response":7,"category":"Other","background_difficulty":"6","image_path":"images/Other/With_Backgrounds/difficulty6_image4.png","trial_type":"image-button-response","trial_index":9,"time_elapsed":18497,"internal_node_id":"0.0-2.0-0.7"},{"rt":1134,"stimulus":"images/Dog/With_Backgrounds/difficulty2_image0.png","response":4,"category":"Dog","background_difficulty":"2","image_path":"images/Dog/With_Backgrounds/difficulty2_image0.png","trial_type":"image-button-response","trial_index":10,"time_elapsed":19642,"internal_node_id":"0.0-2.0-0.8"},{"rt":1066,"stimulus":"images/Car/With_Backgrounds/difficulty7_image1.png","response":2,"category":"Car","background_difficulty":"7","image_path":"images/Car/With_Backgrounds/difficulty7_image1.png","trial_type":"image-button-response","trial_index":11,"time_elapsed":20717,"internal_node_id":"0.0-2.0-0.9"},{"rt":1316,"stimulus":"images/Other/With_Backgrounds/difficulty2_image6.png","response":7,"category":"Other","background_difficulty":"2","image_path":"images/Other/With_Backgrounds/difficulty2_image6.png","trial_type":"image-button-response","trial_index":12,"time_elapsed":22052,"internal_node_id":"0.0-2.0-0.10"},{"rt":1265,"stimulus":"images/Car/With_Backgrounds/difficulty4_image2.png","response":2,"category":"Car","background_difficulty":"4","image_path":"images/Car/With_Backgrounds/difficulty4_image2.png","trial_type":"image-button-response","trial_index":13,"time_elapsed":23326,"internal_node_id":"0.0-2.0-0.11"},{"rt":1051,"stimulus":"images/Broccoli/With_Backgrounds/difficulty4_image4.png","response":1,"category":"Broccoli","background_difficulty":"4","image_path":"images/Broccoli/With_Backgrounds/difficulty4_image4.png","trial_type":"image-button-response","trial_index":14,"time_elapsed":24389,"internal_node_id":"0.0-2.0-0.12"},{"rt":1361,"stimulus":"images/Other/With_Backgrounds/difficulty5_image3.png","response":7,"category":"Other","background_difficulty":"5","image_path":"images/Other/With_Backgrounds/difficulty5_image3.png","trial_type":"image-button-response","trial_index":15,"time_elapsed":25760,"internal_node_id":"0.0-2.0-0.13"},{"rt":932,"stimulus":"images/Tree/With_Backgrounds/difficulty0_image1.png","response":6,"category":"Tree","background_difficulty":"0","image_path":"images/Tree/With_Backgrounds/difficulty0_image1.png","trial_type":"image-button-response","trial_index":16,"time_elapsed":26701,"internal_node_id":"0.0-2.0-0.14"},{"rt":1175,"stimulus":"images/Cat/With_Backgrounds/difficulty4_image3.png","response":3,"category":"Cat","background_difficulty":"4","image_path":"images/Cat/With_Backgrounds/difficulty4_image3.png","trial_type":"image-button-response","trial_index":17,"time_elapsed":27885,"internal_node_id":"0.0-2.0-0.15"},{"rt":1324,"stimulus":"images/Other/With_Backgrounds/difficulty0_image8.png","response":7,"category":"Other","background_difficulty":"0","image_path":"images/Other/With_Backgrounds/difficulty0_image8.png","trial_type":"image-button-response","trial_index":18,"time_elapsed":29217,"internal_node_id":"0.0-2.0-0.16"},{"rt":1195,"stimulus":"images/Car/With_Backgrounds/difficulty1_image4.png","response":2,"category":"Car","background_difficulty":"1","image_path":"images/Car/With_Backgrounds/difficulty1_image4.png","trial_type":"image-button-response","trial_index":19,"time_elapsed":30420,"internal_node_id":"0.0-2.0-0.17"},{"rt":1388,"stimulus":"images/Boat/With_Backgrounds/difficulty7_image6.png","response":0,"category":"Boat","background_difficulty":"7","image_path":"images/Boat/With_Backgrounds/difficulty7_image6.png","trial_type":"image-button-response","trial_index":20,"time_elapsed":31817,"internal_node_id":"0.0-2.0-0.18"},{"rt":1172,"stimulus":"images/Other/With_Backgrounds/difficulty7_image0.png","response":7,"category":"Other","background_difficulty":"7","image_path":"images/Other/With_Backgrounds/difficulty7_image0.png","trial_type":"image-button-response","trial_index":21,"time_elapsed":33001,"internal_node_id":"0.0-2.0-0.19"},{"rt":1034,"stimulus":"images/Broccoli/With_Backgrounds/difficulty1_image7.png","response":1,"category":"Broccoli","background_difficulty":"1","image_path":"images/Broccoli/With_Backgrounds/difficulty1_image7.png","trial_type":"image-button-response","trial_index":22,"time_elapsed":34043,"internal_node_id":"0.0-2.0-0.20"},{"rt":1180,"stimulus":"images/Car/With_Backgrounds/difficulty8_image5.png","response":2,"category":"Car","background_difficulty":"8","image_path":"images/Car/With_Backgrounds/difficulty8_image5.png","trial_type":"image-button-response","trial_index":23,"time_elapsed":35235,"internal_node_id":"0.0-2.0-0.21"},{"rt":848,"stimulus":"images/Car/With_Backgrounds/difficulty5_image0.png","response":2,"category":"Car","background_difficulty":"5","image_path":"images/Car/With_Backgrounds/difficulty5_image0.png","trial_type":"image-button-response","trial_index":24,"time_elapsed":36092,"internal_node_id":"0.0-2.0-0.22"},{"rt":1205,"stimulus":"images/Other/With_Backgrounds/difficulty1_image5.png","response":7,"category":"Other","background_difficulty":"1","image_path":"images/Other/With_Backgrounds/difficulty1_image5.png","trial_type":"image-button-response","trial_index":25,"time_elapsed":37306,"internal_node_id":"0.0-2.0-0.23"},{"rt":1096,"stimulus":"images/Tree/With_Backgrounds/difficulty8_image4.png","response":6,"category":"Tree","background_difficulty":"8","image_path":"images/Tree/With_Backgrounds/difficulty8_image4.png","trial_type":"image-button-response","trial_index":26,"time_elapsed":38416,"internal_node_id":"0.0-2.0-0.24"},{"rt":1283,"stimulus":"images/Broccoli/With_Backgrounds/difficulty3_image3.png","response":1,"category":"Broccoli","background_difficulty":"3","image_path":"images/Broccoli/With_Backgrounds/difficulty3_image3.png","trial_type":"image-button-response","trial_index":27,"time_elapsed":39711,"internal_node_id":"0.0-2.0-0.25"},{"rt":1238,"stimulus":"images/Car/With_Backgrounds/difficulty6_image6.png","response":2,"category":"Car","background_difficulty":"6","image_path":"images/Car/With_Backgrounds/difficulty6_image6.png","trial_type":"image-button-response","trial_index":28,"time_elapsed":40960,"internal_node_id":"0.0-2.0-0.26"},{"rt":933,"stimulus":"images/Cat/With_Backgrounds/difficulty2_image9.png","response":3,"category":"Cat","background_difficulty":"2","image_path":"images/Cat/With_Backgrounds/difficulty2_image9.png","trial_type":"image-button-response","trial_index":29,"time_elapsed":41902,"internal_node_id":"0.0-2.0-0.27"},{"rt":1178,"stimulus":"images/Human/With_Backgrounds/difficulty1_image1.png","response":5,"category":"Human","background_difficulty":"1","image_path":"images/Human/With_Backgrounds/difficulty1_image1.png","trial_type":"image-button-response","trial_index":30,"time_elapsed":43090,"internal_node_id":"0.0-2.0-0.28"},{"rt":994,"stimulus":"images/Tree/With_Backgrounds/difficulty3_image0.png","response":6,"category":"Tree","background_difficulty":"3","image_path":"images/Tree/With_Backgrounds/difficulty3_image0.png","trial_type":"image-button-response","trial_index":31,"time_elapsed":44092,"internal_node_id":"0.0-2.0-0.29"},{"rt":1010,"stimulus":"images/Cat/With_Backgrounds/difficulty0_image4.png","response":3,"category":"Cat","background_difficulty":"0","image_path":"images/Cat/With_Backgrounds/difficulty0_image4.png","trial_type":"image-button-response","trial_index":32,"time_elapsed":45109,"internal_node_id":"0.0-2.0-0.30"},{"rt":1024,"stimulus":"images/Dog/With_Backgrounds/difficulty5_image3.png","response":4,"category":"Dog","background_difficulty":"5","image_path":"images/Dog/With_Backgrounds/difficulty5_image3.png","trial_type":"image-button-response","trial_index":33,"time_elapsed":46142,"internal_node_id":"0.0-2.0-0.31"},{"rt":1544,"stimulus":"images/Human/With_Backgrounds/difficulty0_image4.png","response":5,"category":"Human","background_difficulty":"0","image_path":"images/Human/With_Backgrounds/difficulty0_image4.png","trial_type":"image-button-response","trial_index":34,"time_elapsed":47695,"internal_node_id":"0.0-2.0-0.32"},{"rt":1239,"stimulus":"images/Other/With_Backgrounds/difficulty8_image1.png","response":7,"category":"Other","background_difficulty":"8","image_path":"images/Other/With_Backgrounds/difficulty8_image1.png","trial_type":"image-button-response","trial_index":35,"time_elapsed":48945,"internal_node_id":"0.0-2.0-0.33"},{"rt":1035,"stimulus":"images/Cat/With_Backgrounds/difficulty5_image2.png","response":3,"category":"Cat","background_difficulty":"5","image_path":"images/Cat/With_Backgrounds/difficulty5_image2.png","trial_type":"image-button-response","trial_index":36,"time_elapsed":49991,"internal_node_id":"0.0-2.0-0.34"},{"rt":954,"stimulus":"images/Other/With_Backgrounds/difficulty4_image9.png","response":7,"category":"Other","background_difficulty":"4","image_path":"images/Other/With_Backgrounds/difficulty4_image9.png","trial_type":"image-button-response","trial_index":37,"time_elapsed":50953,"internal_node_id":"0.0-2.0-0.35"},{"rt":873,"stimulus":"images/Dog/With_Backgrounds/difficulty4_image7.png","response":4,"category":"Dog","background_difficulty":"4","image_path":"images/Dog/With_Backgrounds/difficulty4_image7.png","trial_type":"image-button-response","trial_index":38,"time_elapsed":51834,"internal_node_id":"0.0-2.0-0.36"},{"rt":1158,"stimulus":"images/Other/With_Backgrounds/difficulty3_image2.png","response":7,"category":"Other","background_difficulty":"3","image_path":"images/Other/With_Backgrounds/difficulty3_image2.png","trial_type":"image-button-response","trial_index":39,"time_elapsed":52999,"internal_node_id":"0.0-2.0-0.37"},{"rt":966,"stimulus":"images/Broccoli/With_Backgrounds/difficulty7_image5.png","response":1,"category":"Broccoli","background_difficulty":"7","image_path":"images/Broccoli/With_Backgrounds/difficulty7_image5.png","trial_type":"image-button-response","trial_index":40,"time_elapsed":53977,"internal_node_id":"0.0-2.0-0.38"},{"rt":892,"stimulus":"images/Dog/With_Backgrounds/difficulty3_image1.png","response":4,"category":"Dog","background_difficulty":"3","image_path":"images/Dog/With_Backgrounds/difficulty3_image1.png","trial_type":"image-button-response","trial_index":41,"time_elapsed":54878,"internal_node_id":"0.0-2.0-0.39"},{"rt":1254,"stimulus":"images/Human/With_Backgrounds/difficulty8_image7.png","response":5,"category":"Human","background_difficulty":"8","image_path":"images/Human/With_Backgrounds/difficulty8_image7.png","trial_type":"image-button-response","trial_index":42,"time_elapsed":56143,"internal_node_id":"0.0-2.0-0.40"},{"rt":1798,"stimulus":"images/Boat/With_Backgrounds/difficulty2_image2.png","response":0,"category":"Boat","background_difficulty":"2","image_path":"images/Boat/With_Backgrounds/difficulty2_image2.png","trial_type":"image-button-response","trial_index":43,"time_elapsed":57948,"internal_node_id":"0.0-2.0-0.41"},{"rt":839,"stimulus":"images/Boat/With_Backgrounds/difficulty0_image4.png","response":0,"category":"Boat","background_difficulty":"0","image_path":"images/Boat/With_Backgrounds/difficulty0_image4.png","trial_type":"image-button-response","trial_index":44,"time_elapsed":58796,"internal_node_id":"0.0-2.0-0.42"},{"rt":1217,"stimulus":"images/Tree/With_Backgrounds/difficulty6_image6.png","response":6,"category":"Tree","background_difficulty":"6","image_path":"images/Tree/With_Backgrounds/difficulty6_image6.png","trial_type":"image-button-response","trial_index":45,"time_elapsed":60023,"internal_node_id":"0.0-2.0-0.43"},{"rt":1602,"stimulus":"images/Cat/With_Backgrounds/difficulty1_image5.png","response":3,"category":"Cat","background_difficulty":"1","image_path":"images/Cat/With_Backgrounds/difficulty1_image5.png","trial_type":"image-button-response","trial_index":46,"time_elapsed":61633,"internal_node_id":"0.0-2.0-0.44"},{"rt":1016,"stimulus":"images/Tree/With_Backgrounds/difficulty4_image8.png","response":6,"category":"Tree","background_difficulty":"4","image_path":"images/Tree/With_Backgrounds/difficulty4_image8.png","trial_type":"image-button-response","trial_index":47,"time_elapsed":62656,"internal_node_id":"0.0-2.0-0.45"},{"rt":1037,"stimulus":"images/Dog/With_Backgrounds/difficulty7_image8.png","response":4,"category":"Dog","background_difficulty":"7","image_path":"images/Dog/With_Backgrounds/difficulty7_image8.png","trial_type":"image-button-response","trial_index":48,"time_elapsed":63704,"internal_node_id":"0.0-2.0-0.46"},{"rt":1073,"stimulus":"images/Broccoli/With_Backgrounds/difficulty6_image0.png","response":1,"category":"Broccoli","background_difficulty":"6","image_path":"images/Broccoli/With_Backgrounds/difficulty6_image0.png","trial_type":"image-button-response","trial_index":49,"time_elapsed":64785,"internal_node_id":"0.0-2.0-0.47"},{"rt":1169,"stimulus":"images/Boat/With_Backgrounds/difficulty5_image7.png","response":0,"category":"Boat","background_difficulty":"5","image_path":"images/Boat/With_Backgrounds/difficulty5_image7.png","trial_type":"image-button-response","trial_index":50,"time_elapsed":65961,"internal_node_id":"0.0-2.0-0.48"},{"rt":868,"stimulus":"images/Boat/With_Backgrounds/difficulty8_image9.png","response":0,"category":"Boat","background_difficulty":"8","image_path":"images/Boat/With_Backgrounds/difficulty8_image9.png","trial_type":"image-button-response","trial_index":51,"time_elapsed":66839,"internal_node_id":"0.0-2.0-0.49"},{"rt":997,"stimulus":"images/Human/With_Backgrounds/difficulty4_image6.png","response":5,"category":"Human","background_difficulty":"4","image_path":"images/Human/With_Backgrounds/difficulty4_image6.png","trial_type":"image-button-response","trial_index":52,"time_elapsed":67846,"internal_node_id":"0.0-2.0-0.50"},{"rt":1082,"stimulus":"images/Cat/With_Backgrounds/difficulty6_image6.png","response":3,"category":"Cat","background_difficulty":"6","image_path":"images/Cat/With_Backgrounds/difficulty6_image6.png","trial_type":"image-button-response","trial_index":53,"time_elapsed":68937,"internal_node_id":"0.0-2.0-0.51"},{"rt":1442,"stimulus":"images/Human/With_Backgrounds/difficulty7_image0.png","response":5,"category":"Human","background_difficulty":"7","image_path":"images/Human/With_Backgrounds/difficulty7_image0.png","trial_type":"image-button-response","trial_index":54,"time_elapsed":70388,"internal_node_id":"0.0-2.0-0.52"},{"rt":845,"stimulus":"images/Tree/With_Backgrounds/difficulty2_image9.png","response":6,"category":"Tree","background_difficulty":"2","image_path":"images/Tree/With_Backgrounds/difficulty2_image9.png","trial_type":"image-button-response","trial_index":55,"time_elapsed":71239,"internal_node_id":"0.0-2.0-0.53"},{"rt":1215,"stimulus":"images/Dog/With_Backgrounds/difficulty0_image2.png","response":4,"category":"Dog","background_difficulty":"0","image_path":"images/Dog/With_Backgrounds/difficulty0_image2.png","trial_type":"image-button-response","trial_index":56,"time_elapsed":72462,"internal_node_id":"0.0-2.0-0.54"},{"rt":1967,"stimulus":"images/Car/With_Backgrounds/difficulty3_image9.png","response":2,"category":"Car","background_difficulty":"3","image_path":"images/Car/With_Backgrounds/difficulty3_image9.png","trial_type":"image-button-response","trial_index":57,"time_elapsed":74437,"internal_node_id":"0.0-2.0-0.55"},{"rt":1056,"stimulus":"images/Dog/With_Backgrounds/difficulty1_image6.png","response":4,"category":"Dog","background_difficulty":"1","image_path":"images/Dog/With_Backgrounds/difficulty1_image6.png","trial_type":"image-button-response","trial_index":58,"time_elapsed":75498,"internal_node_id":"0.0-2.0-0.56"},{"rt":864,"stimulus":"images/Broccoli/With_Backgrounds/difficulty0_image1.png","response":1,"category":"Broccoli","background_difficulty":"0","image_path":"images/Broccoli/With_Backgrounds/difficulty0_image1.png","trial_type":"image-button-response","trial_index":59,"time_elapsed":76372,"internal_node_id":"0.0-2.0-0.57"},{"rt":1036,"stimulus":"images/Cat/With_Backgrounds/difficulty7_image0.png","response":3,"category":"Cat","background_difficulty":"7","image_path":"images/Cat/With_Backgrounds/difficulty7_image0.png","trial_type":"image-button-response","trial_index":60,"time_elapsed":77419,"internal_node_id":"0.0-2.0-0.58"},{"rt":1091,"stimulus":"images/Boat/With_Backgrounds/difficulty1_image3.png","response":0,"category":"Boat","background_difficulty":"1","image_path":"images/Boat/With_Backgrounds/difficulty1_image3.png","trial_type":"image-button-response","trial_index":61,"time_elapsed":78517,"internal_node_id":"0.0-2.0-0.59"},{"rt":1058,"stimulus":"images/Dog/With_Backgrounds/difficulty6_image4.png","response":4,"category":"Dog","background_difficulty":"6","image_path":"images/Dog/With_Backgrounds/difficulty6_image4.png","trial_type":"image-button-response","trial_index":62,"time_elapsed":79586,"internal_node_id":"0.0-2.0-0.60"},{"rt":877,"stimulus":"images/Dog/With_Backgrounds/difficulty8_image9.png","response":4,"category":"Dog","background_difficulty":"8","image_path":"images/Dog/With_Backgrounds/difficulty8_image9.png","trial_type":"image-button-response","trial_index":63,"time_elapsed":80472,"internal_node_id":"0.0-2.0-0.61"},{"rt":1975,"stimulus":"images/Boat/With_Backgrounds/difficulty4_image8.png","response":0,"category":"Boat","background_difficulty":"4","image_path":"images/Boat/With_Backgrounds/difficulty4_image8.png","trial_type":"image-button-response","trial_index":64,"time_elapsed":82454,"internal_node_id":"0.0-2.0-0.62"},{"rt":1959,"stimulus":"images/Tree/With_Backgrounds/difficulty1_image2.png","response":6,"category":"Tree","background_difficulty":"1","image_path":"images/Tree/With_Backgrounds/difficulty1_image2.png","trial_type":"image-button-response","trial_index":65,"time_elapsed":84421,"internal_node_id":"0.0-2.0-0.63"},{"rt":1367,"stimulus":"images/Car/With_Backgrounds/difficulty0_image3.png","response":2,"category":"Car","background_difficulty":"0","image_path":"images/Car/With_Backgrounds/difficulty0_image3.png","trial_type":"image-button-response","trial_index":66,"time_elapsed":85795,"internal_node_id":"0.0-2.0-0.64"},{"rt":1062,"stimulus":"images/Boat/With_Backgrounds/difficulty6_image0.png","response":0,"category":"Boat","background_difficulty":"6","image_path":"images/Boat/With_Backgrounds/difficulty6_image0.png","trial_type":"image-button-response","trial_index":67,"time_elapsed":86864,"internal_node_id":"0.0-2.0-0.65"},{"rt":975,"stimulus":"images/Human/With_Backgrounds/difficulty6_image5.png","response":5,"category":"Human","background_difficulty":"6","image_path":"images/Human/With_Backgrounds/difficulty6_image5.png","trial_type":"image-button-response","trial_index":68,"time_elapsed":87850,"internal_node_id":"0.0-2.0-0.66"},{"rt":1274,"stimulus":"images/Boat/With_Backgrounds/difficulty3_image5.png","response":0,"category":"Boat","background_difficulty":"3","image_path":"images/Boat/With_Backgrounds/difficulty3_image5.png","trial_type":"image-button-response","trial_index":69,"time_elapsed":89131,"internal_node_id":"0.0-2.0-0.67"},{"rt":1101,"stimulus":"images/Cat/With_Backgrounds/difficulty3_image7.png","response":3,"category":"Cat","background_difficulty":"3","image_path":"images/Cat/With_Backgrounds/difficulty3_image7.png","trial_type":"image-button-response","trial_index":70,"time_elapsed":90242,"internal_node_id":"0.0-2.0-0.68"},{"rt":1575,"stimulus":"images/Tree/With_Backgrounds/difficulty7_image3.png","response":6,"category":"Tree","background_difficulty":"7","image_path":"images/Tree/With_Backgrounds/difficulty7_image3.png","trial_type":"image-button-response","trial_index":71,"time_elapsed":91826,"internal_node_id":"0.0-2.0-0.69"},{"rt":1107,"stimulus":"images/Broccoli/With_Backgrounds/difficulty2_image6.png","response":1,"category":"Broccoli","background_difficulty":"2","image_path":"images/Broccoli/With_Backgrounds/difficulty2_image6.png","trial_type":"image-button-response","trial_index":72,"time_elapsed":92942,"internal_node_id":"0.0-2.0-0.70"},{"rt":913,"stimulus":"images/Broccoli/With_Backgrounds/difficulty5_image8.png","response":1,"category":"Broccoli","background_difficulty":"5","image_path":"images/Broccoli/With_Backgrounds/difficulty5_image8.png","trial_type":"image-button-response","trial_index":73,"time_elapsed":93864,"internal_node_id":"0.0-2.0-0.71"},{"rt":1079,"stimulus":["<h2>Press the button below to end experiment.</h2><p>Thank you for participating!</p>"],"response":0,"trial_type":"html-button-response","trial_index":74,"time_elapsed":94947,"internal_node_id":"0.0-3.0"}]