[{"success":true,"timeout":false,"failed_images":[],"failed_audio":[],"failed_video":[],"trial_type":"preload","trial_index":0,"time_elapsed":1853,"internal_node_id":"0.0-0.0"},{"rt":4345,"stimulus":["<h2>Noisy background image classification</h2><p>In this experiment you will briefly see images on top of colored squares of various sizes.</p><p>Your task is to report what each image is, selecting \"None of the Above\" if none of the given options are correct.</p> <p>The possible options are <strong>Boat</strong>, <strong>Broccoli</strong>, <strong>Car</strong>, <strong>Cat</strong>, <strong>Dog</strong>, <strong>Human</strong>, <strong>Tree</strong>, and <strong>None of the Above</strong>"],"response":0,"trial_type":"html-button-response","trial_index":1,"time_elapsed":6199,"internal_node_id":"0.0-1.0"},{"rt":1145,"stimulus":"images/Dog/With_Backgrounds/difficulty0_image5.png","response":4,"category":"Dog","background_difficulty":"0","image_path":"images/Dog/With_Backgrounds/difficulty0_image5.png","trial_type":"image-button-response","trial_index":2,"time_elapsed":7346,"internal_node_id":"0.0-2.0-0.0"},{"rt":1861,"stimulus":"images/Tree/With_Backgrounds/difficulty5_image5.png","response":6,"category":"Tree","background_difficulty":"5","image_path":"images/Tree/With_Backgrounds/difficulty5_image5.png","trial_type":"image-button-response","trial_index":3,"time_elapsed":9208,"internal_node_id":"0.0-2.0-0.1"},{"rt":1553,"stimulus":"images/Broccoli/With_Backgrounds/difficulty3_image2.png","response":1,"category":"Broccoli","background_difficulty":"3","image_path":"images/Broccoli/With_Backgrounds/difficulty3_image2.png","trial_type":"image-button-response","trial_index":4,"time_elapsed":10762,"internal_node_id":"0.0-2.0-0.2"},{"rt":2724,"stimulus":"images/Other/With_Backgrounds/difficulty1_image2.png","response":7,"category":"Other","background_difficulty":"1","image_path":"images/Other/With_Backgrounds/difficulty1_image2.png","trial_type":"image-button-response","trial_index":5,"time_elapsed":13487,"internal_node_id":"0.0-2.0-0.3"},{"rt":1462,"stimulus":"images/Boat/With_Backgrounds/difficulty0_image8.png","response":0,"category":"Boat","background_difficulty":"0","image_path":"images/Boat/With_Backgrounds/difficulty0_image8.png","trial_type":"image-button-response","trial_index":6,"time_elapsed":14950,"internal_node_id":"0.0-2.0-0.4"},{"rt":1267,"stimulus":"images/Broccoli/With_Backgrounds/difficulty6_image8.png","response":1,"category":"Broccoli","background_difficulty":"6","image_path":"images/Broccoli/With_Backgrounds/difficulty6_image8.png","trial_type":"image-button-response","trial_index":7,"time_elapsed":16217,"internal_node_id":"0.0-2.0-0.5"},{"rt":1817,"stimulus":"images/Human/With_Backgrounds/difficulty1_image1.png","response":5,"category":"Human","background_difficulty":"1","image_path":"images/Human/With_Backgrounds/difficulty1_image1.png","trial_type":"image-button-response","trial_index":8,"time_elapsed":18035,"internal_node_id":"0.0-2.0-0.6"},{"rt":1068,"stimulus":"images/Human/With_Backgrounds/difficulty8_image6.png","response":5,"category":"Human","background_difficulty":"8","image_path":"images/Human/With_Backgrounds/difficulty8_image6.png","trial_type":"image-button-response","trial_index":9,"time_elapsed":19104,"internal_node_id":"0.0-2.0-0.7"},{"rt":987,"stimulus":"images/Human/With_Backgrounds/difficulty2_image2.png","response":5,"category":"Human","background_difficulty":"2","image_path":"images/Human/With_Backgrounds/difficulty2_image2.png","trial_type":"image-button-response","trial_index":10,"time_elapsed":20091,"internal_node_id":"0.0-2.0-0.8"},{"rt":1555,"stimulus":"images/Cat/With_Backgrounds/difficulty7_image7.png","response":3,"category":"Cat","background_difficulty":"7","image_path":"images/Cat/With_Backgrounds/difficulty7_image7.png","trial_type":"image-button-response","trial_index":11,"time_elapsed":21646,"internal_node_id":"0.0-2.0-0.9"},{"rt":1803,"stimulus":"images/Other/With_Backgrounds/difficulty8_image3.png","response":7,"category":"Other","background_difficulty":"8","image_path":"images/Other/With_Backgrounds/difficulty8_image3.png","trial_type":"image-button-response","trial_index":12,"time_elapsed":23450,"internal_node_id":"0.0-2.0-0.10"},{"rt":1792,"stimulus":"images/Car/With_Backgrounds/difficulty4_image2.png","response":2,"category":"Car","background_difficulty":"4","image_path":"images/Car/With_Backgrounds/difficulty4_image2.png","trial_type":"image-button-response","trial_index":13,"time_elapsed":25242,"internal_node_id":"0.0-2.0-0.11"},{"rt":1298,"stimulus":"images/Cat/With_Backgrounds/difficulty3_image2.png","response":3,"category":"Cat","background_difficulty":"3","image_path":"images/Cat/With_Backgrounds/difficulty3_image2.png","trial_type":"image-button-response","trial_index":14,"time_elapsed":26542,"internal_node_id":"0.0-2.0-0.12"},{"rt":2624,"stimulus":"images/Other/With_Backgrounds/difficulty5_image9.png","response":7,"category":"Other","background_difficulty":"5","image_path":"images/Other/With_Backgrounds/difficulty5_image9.png","trial_type":"image-button-response","trial_index":15,"time_elapsed":29167,"internal_node_id":"0.0-2.0-0.13"},{"rt":1625,"stimulus":"images/Car/With_Backgrounds/difficulty5_image6.png","response":2,"category":"Car","background_difficulty":"5","image_path":"images/Car/With_Backgrounds/difficulty5_image6.png","trial_type":"image-button-response","trial_index":16,"time_elapsed":30793,"internal_node_id":"0.0-2.0-0.14"},{"rt":1382,"stimulus":"images/Boat/With_Backgrounds/difficulty7_image9.png","response":0,"category":"Boat","background_difficulty":"7","image_path":"images/Boat/With_Backgrounds/difficulty7_image9.png","trial_type":"image-button-response","trial_index":17,"time_elapsed":32175,"internal_node_id":"0.0-2.0-0.15"},{"rt":2418,"stimulus":"images/Other/With_Backgrounds/difficulty0_image6.png","response":7,"category":"Other","background_difficulty":"0","image_path":"images/Other/With_Backgrounds/difficulty0_image6.png","trial_type":"image-button-response","trial_index":18,"time_elapsed":34594,"internal_node_id":"0.0-2.0-0.16"},{"rt":1747,"stimulus":"images/Boat/With_Backgrounds/difficulty2_image6.png","response":0,"category":"Boat","background_difficulty":"2","image_path":"images/Boat/With_Backgrounds/difficulty2_image6.png","trial_type":"image-button-response","trial_index":19,"time_elapsed":36342,"internal_node_id":"0.0-2.0-0.17"},{"rt":1474,"stimulus":"images/Tree/With_Backgrounds/difficulty7_image0.png","response":6,"category":"Tree","background_difficulty":"7","image_path":"images/Tree/With_Backgrounds/difficulty7_image0.png","trial_type":"image-button-response","trial_index":20,"time_elapsed":37817,"internal_node_id":"0.0-2.0-0.18"},{"rt":1275,"stimulus":"images/Dog/With_Backgrounds/difficulty2_image9.png","response":4,"category":"Dog","background_difficulty":"2","image_path":"images/Dog/With_Backgrounds/difficulty2_image9.png","trial_type":"image-button-response","trial_index":21,"time_elapsed":39093,"internal_node_id":"0.0-2.0-0.19"},{"rt":1761,"stimulus":"images/Tree/With_Backgrounds/difficulty8_image4.png","response":6,"category":"Tree","background_difficulty":"8","image_path":"images/Tree/With_Backgrounds/difficulty8_image4.png","trial_type":"image-button-response","trial_index":22,"time_elapsed":40855,"internal_node_id":"0.0-2.0-0.20"},{"rt":2086,"stimulus":"images/Cat/With_Backgrounds/difficulty0_image9.png","response":3,"category":"Cat","background_difficulty":"0","image_path":"images/Cat/With_Backgrounds/difficulty0_image9.png","trial_type":"image-button-response","trial_index":23,"time_elapsed":42941,"internal_node_id":"0.0-2.0-0.21"},{"rt":1437,"stimulus":"images/Broccoli/With_Backgrounds/difficulty0_image3.png","response":1,"category":"Broccoli","background_difficulty":"0","image_path":"images/Broccoli/With_Backgrounds/difficulty0_image3.png","trial_type":"image-button-response","trial_index":24,"time_elapsed":44379,"internal_node_id":"0.0-2.0-0.22"},{"rt":1204,"stimulus":"images/Human/With_Backgrounds/difficulty0_image3.png","response":5,"category":"Human","background_difficulty":"0","image_path":"images/Human/With_Backgrounds/difficulty0_image3.png","trial_type":"image-button-response","trial_index":25,"time_elapsed":45584,"internal_node_id":"0.0-2.0-0.23"},{"rt":1435,"stimulus":"images/Broccoli/With_Backgrounds/difficulty4_image1.png","response":1,"category":"Broccoli","background_difficulty":"4","image_path":"images/Broccoli/With_Backgrounds/difficulty4_image1.png","trial_type":"image-button-response","trial_index":26,"time_elapsed":47021,"internal_node_id":"0.0-2.0-0.24"},{"rt":2246,"stimulus":"images/Other/With_Backgrounds/difficulty7_image4.png","response":7,"category":"Other","background_difficulty":"7","image_path":"images/Other/With_Backgrounds/difficulty7_image4.png","trial_type":"image-button-response","trial_index":27,"time_elapsed":49267,"internal_node_id":"0.0-2.0-0.25"},{"rt":1698,"stimulus":"images/Car/With_Backgrounds/difficulty2_image7.png","response":2,"category":"Car","background_difficulty":"2","image_path":"images/Car/With_Backgrounds/difficulty2_image7.png","trial_type":"image-button-response","trial_index":28,"time_elapsed":50966,"internal_node_id":"0.0-2.0-0.26"},{"rt":1241,"stimulus":"images/Dog/With_Backgrounds/difficulty1_image6.png","response":4,"category":"Dog","background_difficulty":"1","image_path":"images/Dog/With_Backgrounds/difficulty1_image6.png","trial_type":"image-button-response","trial_index":29,"time_elapsed":52208,"internal_node_id":"0.0-2.0-0.27"},{"rt":2208,"stimulus":"images/Other/With_Backgrounds/difficulty6_image5.png","response":7,"category":"Other","background_difficulty":"6","image_path":"images/Other/With_Backgrounds/difficulty6_image5.png","trial_type":"image-button-response","trial_index":30,"time_elapsed":54418,"internal_node_id":"0.0-2.0-0.28"},{"rt":1267,"stimulus":"images/Boat/With_Backgrounds/difficulty5_image1.png","response":0,"category":"Boat","background_difficulty":"5","image_path":"images/Boat/With_Backgrounds/difficulty5_image1.png","trial_type":"image-button-response","trial_index":31,"time_elapsed":55686,"internal_node_id":"0.0-2.0-0.29"},{"rt":1235,"stimulus":"images/Cat/With_Backgrounds/difficulty2_image6.png","response":3,"category":"Cat","background_difficulty":"2","image_path":"images/Cat/With_Backgrounds/difficulty2_image6.png","trial_type":"image-button-response","trial_index":32,"time_elapsed":56922,"internal_node_id":"0.0-2.0-0.30"},{"rt":1045,"stimulus":"images/Human/With_Backgrounds/difficulty7_image9.png","response":5,"category":"Human","background_difficulty":"7","image_path":"images/Human/With_Backgrounds/difficulty7_image9.png","trial_type":"image-button-response","trial_index":33,"time_elapsed":57967,"internal_node_id":"0.0-2.0-0.31"},{"rt":1532,"stimulus":"images/Dog/With_Backgrounds/difficulty6_image3.png","response":4,"category":"Dog","background_difficulty":"6","image_path":"images/Dog/With_Backgrounds/difficulty6_image3.png","trial_type":"image-button-response","trial_index":34,"time_elapsed":59500,"internal_node_id":"0.0-2.0-0.32"},{"rt":1711,"stimulus":"images/Car/With_Backgrounds/difficulty6_image9.png","response":2,"category":"Car","background_difficulty":"6","image_path":"images/Car/With_Backgrounds/difficulty6_image9.png","trial_type":"image-button-response","trial_index":35,"time_elapsed":61213,"internal_node_id":"0.0-2.0-0.33"},{"rt":1241,"stimulus":"images/Dog/With_Backgrounds/difficulty5_image1.png","response":4,"category":"Dog","background_difficulty":"5","image_path":"images/Dog/With_Backgrounds/difficulty5_image1.png","trial_type":"image-button-response","trial_index":36,"time_elapsed":62455,"internal_node_id":"0.0-2.0-0.34"},{"rt":807,"stimulus":"images/Dog/With_Backgrounds/difficulty8_image8.png","response":4,"category":"Dog","background_difficulty":"8","image_path":"images/Dog/With_Backgrounds/difficulty8_image8.png","trial_type":"image-button-response","trial_index":37,"time_elapsed":63263,"internal_node_id":"0.0-2.0-0.35"},{"rt":611,"stimulus":"images/Dog/With_Backgrounds/difficulty4_image2.png","response":4,"category":"Dog","background_difficulty":"4","image_path":"images/Dog/With_Backgrounds/difficulty4_image2.png","trial_type":"image-button-response","trial_index":38,"time_elapsed":63875,"internal_node_id":"0.0-2.0-0.36"},{"rt":1241,"stimulus":"images/Boat/With_Backgrounds/difficulty4_image4.png","response":0,"category":"Boat","background_difficulty":"4","image_path":"images/Boat/With_Backgrounds/difficulty4_image4.png","trial_type":"image-button-response","trial_index":39,"time_elapsed":65116,"internal_node_id":"0.0-2.0-0.37"},{"rt":1267,"stimulus":"images/Cat/With_Backgrounds/difficulty1_image4.png","response":3,"category":"Cat","background_difficulty":"1","image_path":"images/Cat/With_Backgrounds/difficulty1_image4.png","trial_type":"image-button-response","trial_index":40,"time_elapsed":66385,"internal_node_id":"0.0-2.0-0.38"},{"rt":923,"stimulus":"images/Dog/With_Backgrounds/difficulty3_image0.png","response":4,"category":"Dog","background_difficulty":"3","image_path":"images/Dog/With_Backgrounds/difficulty3_image0.png","trial_type":"image-button-response","trial_index":41,"time_elapsed":67308,"internal_node_id":"0.0-2.0-0.39"},{"rt":2623,"stimulus":"images/Car/With_Backgrounds/difficulty0_image8.png","response":2,"category":"Car","background_difficulty":"0","image_path":"images/Car/With_Backgrounds/difficulty0_image8.png","trial_type":"image-button-response","trial_index":42,"time_elapsed":69933,"internal_node_id":"0.0-2.0-0.40"},{"rt":1106,"stimulus":"images/Human/With_Backgrounds/difficulty4_image5.png","response":5,"category":"Human","background_difficulty":"4","image_path":"images/Human/With_Backgrounds/difficulty4_image5.png","trial_type":"image-button-response","trial_index":43,"time_elapsed":71040,"internal_node_id":"0.0-2.0-0.41"},{"rt":1093,"stimulus":"images/Dog/With_Backgrounds/difficulty7_image7.png","response":4,"category":"Dog","background_difficulty":"7","image_path":"images/Dog/With_Backgrounds/difficulty7_image7.png","trial_type":"image-button-response","trial_index":44,"time_elapsed":72134,"internal_node_id":"0.0-2.0-0.42"},{"rt":1052,"stimulus":"images/Boat/With_Backgrounds/difficulty3_image5.png","response":0,"category":"Boat","background_difficulty":"3","image_path":"images/Boat/With_Backgrounds/difficulty3_image5.png","trial_type":"image-button-response","trial_index":45,"time_elapsed":73187,"internal_node_id":"0.0-2.0-0.43"},{"rt":1821,"stimulus":"images/Other/With_Backgrounds/difficulty3_image8.png","response":7,"category":"Other","background_difficulty":"3","image_path":"images/Other/With_Backgrounds/difficulty3_image8.png","trial_type":"image-button-response","trial_index":46,"time_elapsed":75010,"internal_node_id":"0.0-2.0-0.44"},{"rt":1373,"stimulus":"images/Tree/With_Backgrounds/difficulty3_image1.png","response":6,"category":"Tree","background_difficulty":"3","image_path":"images/Tree/With_Backgrounds/difficulty3_image1.png","trial_type":"image-button-response","trial_index":47,"time_elapsed":76384,"internal_node_id":"0.0-2.0-0.45"},{"rt":1018,"stimulus":"images/Human/With_Backgrounds/difficulty6_image7.png","response":5,"category":"Human","background_difficulty":"6","image_path":"images/Human/With_Backgrounds/difficulty6_image7.png","trial_type":"image-button-response","trial_index":48,"time_elapsed":77404,"internal_node_id":"0.0-2.0-0.46"},{"rt":966,"stimulus":"images/Tree/With_Backgrounds/difficulty4_image6.png","response":6,"category":"Tree","background_difficulty":"4","image_path":"images/Tree/With_Backgrounds/difficulty4_image6.png","trial_type":"image-button-response","trial_index":49,"time_elapsed":78371,"internal_node_id":"0.0-2.0-0.47"},{"rt":1103,"stimulus":"images/Broccoli/With_Backgrounds/difficulty8_image4.png","response":1,"category":"Broccoli","background_difficulty":"8","image_path":"images/Broccoli/With_Backgrounds/difficulty8_image4.png","trial_type":"image-button-response","trial_index":50,"time_elapsed":79475,"internal_node_id":"0.0-2.0-0.48"},{"rt":2084,"stimulus":"images/Boat/With_Backgrounds/difficulty8_image3.png","response":0,"category":"Boat","background_difficulty":"8","image_path":"images/Boat/With_Backgrounds/difficulty8_image3.png","trial_type":"image-button-response","trial_index":51,"time_elapsed":81559,"internal_node_id":"0.0-2.0-0.49"},{"rt":2466,"stimulus":"images/Other/With_Backgrounds/difficulty2_image1.png","response":7,"category":"Other","background_difficulty":"2","image_path":"images/Other/With_Backgrounds/difficulty2_image1.png","trial_type":"image-button-response","trial_index":52,"time_elapsed":84026,"internal_node_id":"0.0-2.0-0.50"},{"rt":2278,"stimulus":"images/Boat/With_Backgrounds/difficulty1_image7.png","response":0,"category":"Boat","background_difficulty":"1","image_path":"images/Boat/With_Backgrounds/difficulty1_image7.png","trial_type":"image-button-response","trial_index":53,"time_elapsed":86309,"internal_node_id":"0.0-2.0-0.51"},{"rt":1470,"stimulus":"images/Cat/With_Backgrounds/difficulty8_image1.png","response":3,"category":"Cat","background_difficulty":"8","image_path":"images/Cat/With_Backgrounds/difficulty8_image1.png","trial_type":"image-button-response","trial_index":54,"time_elapsed":87780,"internal_node_id":"0.0-2.0-0.52"},{"rt":2777,"stimulus":"images/Tree/With_Backgrounds/difficulty2_image2.png","response":6,"category":"Tree","background_difficulty":"2","image_path":"images/Tree/With_Backgrounds/difficulty2_image2.png","trial_type":"image-button-response","trial_index":55,"time_elapsed":90559,"internal_node_id":"0.0-2.0-0.53"},{"rt":1265,"stimulus":"images/Broccoli/With_Backgrounds/difficulty2_image5.png","response":1,"category":"Broccoli","background_difficulty":"2","image_path":"images/Broccoli/With_Backgrounds/difficulty2_image5.png","trial_type":"image-button-response","trial_index":56,"time_elapsed":91825,"internal_node_id":"0.0-2.0-0.54"},{"rt":1383,"stimulus":"images/Car/With_Backgrounds/difficulty8_image4.png","response":2,"category":"Car","background_difficulty":"8","image_path":"images/Car/With_Backgrounds/difficulty8_image4.png","trial_type":"image-button-response","trial_index":57,"time_elapsed":93210,"internal_node_id":"0.0-2.0-0.55"},{"rt":1564,"stimulus":"images/Cat/With_Backgrounds/difficulty4_image8.png","response":3,"category":"Cat","background_difficulty":"4","image_path":"images/Cat/With_Backgrounds/difficulty4_image8.png","trial_type":"image-button-response","trial_index":58,"time_elapsed":94775,"internal_node_id":"0.0-2.0-0.56"},{"rt":1263,"stimulus":"images/Tree/With_Backgrounds/difficulty6_image3.png","response":6,"category":"Tree","background_difficulty":"6","image_path":"images/Tree/With_Backgrounds/difficulty6_image3.png","trial_type":"image-button-response","trial_index":59,"time_elapsed":96038,"internal_node_id":"0.0-2.0-0.57"},{"rt":929,"stimulus":"images/Broccoli/With_Backgrounds/difficulty1_image6.png","response":6,"category":"Broccoli","background_difficulty":"1","image_path":"images/Broccoli/With_Backgrounds/difficulty1_image6.png","trial_type":"image-button-response","trial_index":60,"time_elapsed":96968,"internal_node_id":"0.0-2.0-0.58"},{"rt":635,"stimulus":"images/Broccoli/With_Backgrounds/difficulty7_image9.png","response":6,"category":"Broccoli","background_difficulty":"7","image_path":"images/Broccoli/With_Backgrounds/difficulty7_image9.png","trial_type":"image-button-response","trial_index":61,"time_elapsed":97604,"internal_node_id":"0.0-2.0-0.59"},{"rt":1162,"stimulus":"images/Cat/With_Backgrounds/difficulty6_image3.png","response":3,"category":"Cat","background_difficulty":"6","image_path":"images/Cat/With_Backgrounds/difficulty6_image3.png","trial_type":"image-button-response","trial_index":62,"time_elapsed":98767,"internal_node_id":"0.0-2.0-0.60"},{"rt":1089,"stimulus":"images/Car/With_Backgrounds/difficulty1_image1.png","response":2,"category":"Car","background_difficulty":"1","image_path":"images/Car/With_Backgrounds/difficulty1_image1.png","trial_type":"image-button-response","trial_index":63,"time_elapsed":99856,"internal_node_id":"0.0-2.0-0.61"},{"rt":1443,"stimulus":"images/Broccoli/With_Backgrounds/difficulty5_image7.png","response":6,"category":"Broccoli","background_difficulty":"5","image_path":"images/Broccoli/With_Backgrounds/difficulty5_image7.png","trial_type":"image-button-response","trial_index":64,"time_elapsed":101300,"internal_node_id":"0.0-2.0-0.62"},{"rt":1179,"stimulus":"images/Car/With_Backgrounds/difficulty7_image3.png","response":2,"category":"Car","background_difficulty":"7","image_path":"images/Car/With_Backgrounds/difficulty7_image3.png","trial_type":"image-button-response","trial_index":65,"time_elapsed":102480,"internal_node_id":"0.0-2.0-0.63"},{"rt":790,"stimulus":"images/Car/With_Backgrounds/difficulty3_image5.png","response":2,"category":"Car","background_difficulty":"3","image_path":"images/Car/With_Backgrounds/difficulty3_image5.png","trial_type":"image-button-response","trial_index":66,"time_elapsed":103271,"internal_node_id":"0.0-2.0-0.64"},{"rt":1546,"stimulus":"images/Human/With_Backgrounds/difficulty3_image0.png","response":5,"category":"Human","background_difficulty":"3","image_path":"images/Human/With_Backgrounds/difficulty3_image0.png","trial_type":"image-button-response","trial_index":67,"time_elapsed":104818,"internal_node_id":"0.0-2.0-0.65"},{"rt":1094,"stimulus":"images/Boat/With_Backgrounds/difficulty6_image0.png","response":0,"category":"Boat","background_difficulty":"6","image_path":"images/Boat/With_Backgrounds/difficulty6_image0.png","trial_type":"image-button-response","trial_index":68,"time_elapsed":105913,"internal_node_id":"0.0-2.0-0.66"},{"rt":1174,"stimulus":"images/Tree/With_Backgrounds/difficulty0_image9.png","response":6,"category":"Tree","background_difficulty":"0","image_path":"images/Tree/With_Backgrounds/difficulty0_image9.png","trial_type":"image-button-response","trial_index":69,"time_elapsed":107089,"internal_node_id":"0.0-2.0-0.67"},{"rt":1722,"stimulus":"images/Tree/With_Backgrounds/difficulty1_image8.png","response":6,"category":"Tree","background_difficulty":"1","image_path":"images/Tree/With_Backgrounds/difficulty1_image8.png","trial_type":"image-button-response","trial_index":70,"time_elapsed":108812,"internal_node_id":"0.0-2.0-0.68"},{"rt":2600,"stimulus":"images/Cat/With_Backgrounds/difficulty5_image5.png","response":3,"category":"Cat","background_difficulty":"5","image_path":"images/Cat/With_Backgrounds/difficulty5_image5.png","trial_type":"image-button-response","trial_index":71,"time_elapsed":111413,"internal_node_id":"0.0-2.0-0.69"},{"rt":1861,"stimulus":"images/Other/With_Backgrounds/difficulty4_image7.png","response":7,"category":"Other","background_difficulty":"4","image_path":"images/Other/With_Backgrounds/difficulty4_image7.png","trial_type":"image-button-response","trial_index":72,"time_elapsed":113276,"internal_node_id":"0.0-2.0-0.70"},{"rt":1498,"stimulus":"images/Human/With_Backgrounds/difficulty5_image4.png","response":5,"category":"Human","background_difficulty":"5","image_path":"images/Human/With_Backgrounds/difficulty5_image4.png","trial_type":"image-button-response","trial_index":73,"time_elapsed":114775,"internal_node_id":"0.0-2.0-0.71"},{"rt":949,"stimulus":["<h2>Press the button below to end experiment.</h2><p>Thank you for participating!</p>"],"response":0,"trial_type":"html-button-response","trial_index":74,"time_elapsed":115725,"internal_node_id":"0.0-3.0"}]