[{"success":true,"timeout":false,"failed_images":[],"failed_audio":[],"failed_video":[],"trial_type":"preload","trial_index":0,"time_elapsed":1904,"internal_node_id":"0.0-0.0"},{"rt":2108,"stimulus":["<h2>Noisy background image classification</h2><p>In this experiment you will briefly see images on top of colored squares of various sizes.</p><p>Your task is to report what each image is, selecting \"None of the Above\" if none of the given options are correct.</p> <p>The possible options are <strong>Boat</strong>, <strong>Broccoli</strong>, <strong>Car</strong>, <strong>Cat</strong>, <strong>Dog</strong>, <strong>Human</strong>, <strong>Tree</strong>, and <strong>None of the Above</strong>"],"response":0,"trial_type":"html-button-response","trial_index":1,"time_elapsed":4013,"internal_node_id":"0.0-1.0"},{"rt":2665,"stimulus":"images/Boat/With_Backgrounds/difficulty0_image5.png","response":0,"category":"Boat","background_difficulty":"0","image_path":"images/Boat/With_Backgrounds/difficulty0_image5.png","trial_type":"image-button-response","trial_index":2,"time_elapsed":6684,"internal_node_id":"0.0-2.0-0.0"},{"rt":1915,"stimulus":"images/Human/With_Backgrounds/difficulty6_image2.png","response":5,"category":"Human","background_difficulty":"6","image_path":"images/Human/With_Backgrounds/difficulty6_image2.png","trial_type":"image-button-response","trial_index":3,"time_elapsed":8601,"internal_node_id":"0.0-2.0-0.1"},{"rt":1095,"stimulus":"images/Human/With_Backgrounds/difficulty5_image0.png","response":5,"category":"Human","background_difficulty":"5","image_path":"images/Human/With_Backgrounds/difficulty5_image0.png","trial_type":"image-button-response","trial_index":4,"time_elapsed":9697,"internal_node_id":"0.0-2.0-0.2"},{"rt":2104,"stimulus":"images/Broccoli/With_Backgrounds/difficulty6_image0.png","response":1,"category":"Broccoli","background_difficulty":"6","image_path":"images/Broccoli/With_Backgrounds/difficulty6_image0.png","trial_type":"image-button-response","trial_index":5,"time_elapsed":11802,"internal_node_id":"0.0-2.0-0.3"},{"rt":1533,"stimulus":"images/Human/With_Backgrounds/difficulty3_image7.png","response":5,"category":"Human","background_difficulty":"3","image_path":"images/Human/With_Backgrounds/difficulty3_image7.png","trial_type":"image-button-response","trial_index":6,"time_elapsed":13336,"internal_node_id":"0.0-2.0-0.4"},{"rt":1592,"stimulus":"images/Dog/With_Backgrounds/difficulty0_image8.png","response":4,"category":"Dog","background_difficulty":"0","image_path":"images/Dog/With_Backgrounds/difficulty0_image8.png","trial_type":"image-button-response","trial_index":7,"time_elapsed":14929,"internal_node_id":"0.0-2.0-0.5"},{"rt":2613,"stimulus":"images/Other/With_Backgrounds/difficulty4_image5.png","response":7,"category":"Other","background_difficulty":"4","image_path":"images/Other/With_Backgrounds/difficulty4_image5.png","trial_type":"image-button-response","trial_index":8,"time_elapsed":17543,"internal_node_id":"0.0-2.0-0.6"},{"rt":1582,"stimulus":"images/Car/With_Backgrounds/difficulty0_image9.png","response":2,"category":"Car","background_difficulty":"0","image_path":"images/Car/With_Backgrounds/difficulty0_image9.png","trial_type":"image-button-response","trial_index":9,"time_elapsed":19127,"internal_node_id":"0.0-2.0-0.7"},{"rt":2098,"stimulus":"images/Tree/With_Backgrounds/difficulty1_image6.png","response":6,"category":"Tree","background_difficulty":"1","image_path":"images/Tree/With_Backgrounds/difficulty1_image6.png","trial_type":"image-button-response","trial_index":10,"time_elapsed":21226,"internal_node_id":"0.0-2.0-0.8"},{"rt":2111,"stimulus":"images/Broccoli/With_Backgrounds/difficulty8_image5.png","response":1,"category":"Broccoli","background_difficulty":"8","image_path":"images/Broccoli/With_Backgrounds/difficulty8_image5.png","trial_type":"image-button-response","trial_index":11,"time_elapsed":23338,"internal_node_id":"0.0-2.0-0.9"},{"rt":1568,"stimulus":"images/Dog/With_Backgrounds/difficulty7_image0.png","response":4,"category":"Dog","background_difficulty":"7","image_path":"images/Dog/With_Backgrounds/difficulty7_image0.png","trial_type":"image-button-response","trial_index":12,"time_elapsed":24907,"internal_node_id":"0.0-2.0-0.10"},{"rt":1918,"stimulus":"images/Tree/With_Backgrounds/difficulty4_image9.png","response":6,"category":"Tree","background_difficulty":"4","image_path":"images/Tree/With_Backgrounds/difficulty4_image9.png","trial_type":"image-button-response","trial_index":13,"time_elapsed":26826,"internal_node_id":"0.0-2.0-0.11"},{"rt":1766,"stimulus":"images/Cat/With_Backgrounds/difficulty6_image4.png","response":3,"category":"Cat","background_difficulty":"6","image_path":"images/Cat/With_Backgrounds/difficulty6_image4.png","trial_type":"image-button-response","trial_index":14,"time_elapsed":28593,"internal_node_id":"0.0-2.0-0.12"},{"rt":1391,"stimulus":"images/Dog/With_Backgrounds/difficulty3_image4.png","response":4,"category":"Dog","background_difficulty":"3","image_path":"images/Dog/With_Backgrounds/difficulty3_image4.png","trial_type":"image-button-response","trial_index":15,"time_elapsed":29985,"internal_node_id":"0.0-2.0-0.13"},{"rt":1474,"stimulus":"images/Broccoli/With_Backgrounds/difficulty2_image2.png","response":1,"category":"Broccoli","background_difficulty":"2","image_path":"images/Broccoli/With_Backgrounds/difficulty2_image2.png","trial_type":"image-button-response","trial_index":16,"time_elapsed":31460,"internal_node_id":"0.0-2.0-0.14"},{"rt":2401,"stimulus":"images/Boat/With_Backgrounds/difficulty8_image8.png","response":0,"category":"Boat","background_difficulty":"8","image_path":"images/Boat/With_Backgrounds/difficulty8_image8.png","trial_type":"image-button-response","trial_index":17,"time_elapsed":33861,"internal_node_id":"0.0-2.0-0.15"},{"rt":1526,"stimulus":"images/Broccoli/With_Backgrounds/difficulty4_image9.png","response":1,"category":"Broccoli","background_difficulty":"4","image_path":"images/Broccoli/With_Backgrounds/difficulty4_image9.png","trial_type":"image-button-response","trial_index":18,"time_elapsed":35389,"internal_node_id":"0.0-2.0-0.16"},{"rt":1481,"stimulus":"images/Dog/With_Backgrounds/difficulty6_image7.png","response":4,"category":"Dog","background_difficulty":"6","image_path":"images/Dog/With_Backgrounds/difficulty6_image7.png","trial_type":"image-button-response","trial_index":19,"time_elapsed":36870,"internal_node_id":"0.0-2.0-0.17"},{"rt":1652,"stimulus":"images/Other/With_Backgrounds/difficulty8_image3.png","response":7,"category":"Other","background_difficulty":"8","image_path":"images/Other/With_Backgrounds/difficulty8_image3.png","trial_type":"image-button-response","trial_index":20,"time_elapsed":38524,"internal_node_id":"0.0-2.0-0.18"},{"rt":2122,"stimulus":"images/Cat/With_Backgrounds/difficulty0_image1.png","response":3,"category":"Cat","background_difficulty":"0","image_path":"images/Cat/With_Backgrounds/difficulty0_image1.png","trial_type":"image-button-response","trial_index":21,"time_elapsed":40646,"internal_node_id":"0.0-2.0-0.19"},{"rt":1263,"stimulus":"images/Cat/With_Backgrounds/difficulty1_image3.png","response":3,"category":"Cat","background_difficulty":"1","image_path":"images/Cat/With_Backgrounds/difficulty1_image3.png","trial_type":"image-button-response","trial_index":22,"time_elapsed":41910,"internal_node_id":"0.0-2.0-0.20"},{"rt":1013,"stimulus":"images/Cat/With_Backgrounds/difficulty8_image7.png","response":3,"category":"Cat","background_difficulty":"8","image_path":"images/Cat/With_Backgrounds/difficulty8_image7.png","trial_type":"image-button-response","trial_index":23,"time_elapsed":42924,"internal_node_id":"0.0-2.0-0.21"},{"rt":1339,"stimulus":"images/Dog/With_Backgrounds/difficulty8_image6.png","response":4,"category":"Dog","background_difficulty":"8","image_path":"images/Dog/With_Backgrounds/difficulty8_image6.png","trial_type":"image-button-response","trial_index":24,"time_elapsed":44264,"internal_node_id":"0.0-2.0-0.22"},{"rt":1287,"stimulus":"images/Cat/With_Backgrounds/difficulty4_image5.png","response":3,"category":"Cat","background_difficulty":"4","image_path":"images/Cat/With_Backgrounds/difficulty4_image5.png","trial_type":"image-button-response","trial_index":25,"time_elapsed":45553,"internal_node_id":"0.0-2.0-0.23"},{"rt":1896,"stimulus":"images/Broccoli/With_Backgrounds/difficulty0_image8.png","response":1,"category":"Broccoli","background_difficulty":"0","image_path":"images/Broccoli/With_Backgrounds/difficulty0_image8.png","trial_type":"image-button-response","trial_index":26,"time_elapsed":47451,"internal_node_id":"0.0-2.0-0.24"},{"rt":1622,"stimulus":"images/Dog/With_Backgrounds/difficulty2_image3.png","response":4,"category":"Dog","background_difficulty":"2","image_path":"images/Dog/With_Backgrounds/difficulty2_image3.png","trial_type":"image-button-response","trial_index":27,"time_elapsed":49074,"internal_node_id":"0.0-2.0-0.25"},{"rt":1635,"stimulus":"images/Tree/With_Backgrounds/difficulty5_image0.png","response":6,"category":"Tree","background_difficulty":"5","image_path":"images/Tree/With_Backgrounds/difficulty5_image0.png","trial_type":"image-button-response","trial_index":28,"time_elapsed":50710,"internal_node_id":"0.0-2.0-0.26"},{"rt":1528,"stimulus":"images/Car/With_Backgrounds/difficulty6_image7.png","response":2,"category":"Car","background_difficulty":"6","image_path":"images/Car/With_Backgrounds/difficulty6_image7.png","trial_type":"image-button-response","trial_index":29,"time_elapsed":52239,"internal_node_id":"0.0-2.0-0.27"},{"rt":1321,"stimulus":"images/Human/With_Backgrounds/difficulty2_image3.png","response":5,"category":"Human","background_difficulty":"2","image_path":"images/Human/With_Backgrounds/difficulty2_image3.png","trial_type":"image-button-response","trial_index":30,"time_elapsed":53561,"internal_node_id":"0.0-2.0-0.28"},{"rt":1478,"stimulus":"images/Boat/With_Backgrounds/difficulty1_image1.png","response":0,"category":"Boat","background_difficulty":"1","image_path":"images/Boat/With_Backgrounds/difficulty1_image1.png","trial_type":"image-button-response","trial_index":31,"time_elapsed":55041,"internal_node_id":"0.0-2.0-0.29"},{"rt":1339,"stimulus":"images/Other/With_Backgrounds/difficulty0_image6.png","response":7,"category":"Other","background_difficulty":"0","image_path":"images/Other/With_Backgrounds/difficulty0_image6.png","trial_type":"image-button-response","trial_index":32,"time_elapsed":56380,"internal_node_id":"0.0-2.0-0.30"},{"rt":1807,"stimulus":"images/Cat/With_Backgrounds/difficulty7_image9.png","response":3,"category":"Cat","background_difficulty":"7","image_path":"images/Cat/With_Backgrounds/difficulty7_image9.png","trial_type":"image-button-response","trial_index":33,"time_elapsed":58189,"internal_node_id":"0.0-2.0-0.31"},{"rt":1534,"stimulus":"images/Other/With_Backgrounds/difficulty6_image8.png","response":7,"category":"Other","background_difficulty":"6","image_path":"images/Other/With_Backgrounds/difficulty6_image8.png","trial_type":"image-button-response","trial_index":34,"time_elapsed":59724,"internal_node_id":"0.0-2.0-0.32"},{"rt":1853,"stimulus":"images/Human/With_Backgrounds/difficulty0_image4.png","response":5,"category":"Human","background_difficulty":"0","image_path":"images/Human/With_Backgrounds/difficulty0_image4.png","trial_type":"image-button-response","trial_index":35,"time_elapsed":61578,"internal_node_id":"0.0-2.0-0.33"},{"rt":1652,"stimulus":"images/Boat/With_Backgrounds/difficulty6_image6.png","response":0,"category":"Boat","background_difficulty":"6","image_path":"images/Boat/With_Backgrounds/difficulty6_image6.png","trial_type":"image-button-response","trial_index":36,"time_elapsed":63231,"internal_node_id":"0.0-2.0-0.34"},{"rt":1765,"stimulus":"images/Car/With_Backgrounds/difficulty7_image5.png","response":2,"category":"Car","background_difficulty":"7","image_path":"images/Car/With_Backgrounds/difficulty7_image5.png","trial_type":"image-button-response","trial_index":37,"time_elapsed":64998,"internal_node_id":"0.0-2.0-0.35"},{"rt":1557,"stimulus":"images/Other/With_Backgrounds/difficulty1_image4.png","response":7,"category":"Other","background_difficulty":"1","image_path":"images/Other/With_Backgrounds/difficulty1_image4.png","trial_type":"image-button-response","trial_index":38,"time_elapsed":66555,"internal_node_id":"0.0-2.0-0.36"},{"rt":2069,"stimulus":"images/Tree/With_Backgrounds/difficulty8_image7.png","response":6,"category":"Tree","background_difficulty":"8","image_path":"images/Tree/With_Backgrounds/difficulty8_image7.png","trial_type":"image-button-response","trial_index":39,"time_elapsed":68625,"internal_node_id":"0.0-2.0-0.37"},{"rt":1090,"stimulus":"images/Tree/With_Backgrounds/difficulty6_image4.png","response":6,"category":"Tree","background_difficulty":"6","image_path":"images/Tree/With_Backgrounds/difficulty6_image4.png","trial_type":"image-button-response","trial_index":40,"time_elapsed":69716,"internal_node_id":"0.0-2.0-0.38"},{"rt":1338,"stimulus":"images/Human/With_Backgrounds/difficulty1_image5.png","response":5,"category":"Human","background_difficulty":"1","image_path":"images/Human/With_Backgrounds/difficulty1_image5.png","trial_type":"image-button-response","trial_index":41,"time_elapsed":71055,"internal_node_id":"0.0-2.0-0.39"},{"rt":998,"stimulus":"images/Human/With_Backgrounds/difficulty4_image6.png","response":5,"category":"Human","background_difficulty":"4","image_path":"images/Human/With_Backgrounds/difficulty4_image6.png","trial_type":"image-button-response","trial_index":42,"time_elapsed":72054,"internal_node_id":"0.0-2.0-0.40"},{"rt":1257,"stimulus":"images/Other/With_Backgrounds/difficulty7_image2.png","response":7,"category":"Other","background_difficulty":"7","image_path":"images/Other/With_Backgrounds/difficulty7_image2.png","trial_type":"image-button-response","trial_index":43,"time_elapsed":73314,"internal_node_id":"0.0-2.0-0.41"},{"rt":1318,"stimulus":"images/Cat/With_Backgrounds/difficulty3_image6.png","response":3,"category":"Cat","background_difficulty":"3","image_path":"images/Cat/With_Backgrounds/difficulty3_image6.png","trial_type":"image-button-response","trial_index":44,"time_elapsed":74633,"internal_node_id":"0.0-2.0-0.42"},{"rt":1360,"stimulus":"images/Other/With_Backgrounds/difficulty3_image1.png","response":7,"category":"Other","background_difficulty":"3","image_path":"images/Other/With_Backgrounds/difficulty3_image1.png","trial_type":"image-button-response","trial_index":45,"time_elapsed":75994,"internal_node_id":"0.0-2.0-0.43"},{"rt":1356,"stimulus":"images/Boat/With_Backgrounds/difficulty4_image3.png","response":0,"category":"Boat","background_difficulty":"4","image_path":"images/Boat/With_Backgrounds/difficulty4_image3.png","trial_type":"image-button-response","trial_index":46,"time_elapsed":77351,"internal_node_id":"0.0-2.0-0.44"},{"rt":1737,"stimulus":"images/Car/With_Backgrounds/difficulty3_image4.png","response":2,"category":"Car","background_difficulty":"3","image_path":"images/Car/With_Backgrounds/difficulty3_image4.png","trial_type":"image-button-response","trial_index":47,"time_elapsed":79089,"internal_node_id":"0.0-2.0-0.45"},{"rt":1697,"stimulus":"images/Dog/With_Backgrounds/difficulty5_image5.png","response":4,"category":"Dog","background_difficulty":"5","image_path":"images/Dog/With_Backgrounds/difficulty5_image5.png","trial_type":"image-button-response","trial_index":48,"time_elapsed":80787,"internal_node_id":"0.0-2.0-0.46"},{"rt":1432,"stimulus":"images/Broccoli/With_Backgrounds/difficulty1_image7.png","response":1,"category":"Broccoli","background_difficulty":"1","image_path":"images/Broccoli/With_Backgrounds/difficulty1_image7.png","trial_type":"image-button-response","trial_index":49,"time_elapsed":82220,"internal_node_id":"0.0-2.0-0.47"},{"rt":2251,"stimulus":"images/Boat/With_Backgrounds/difficulty2_image2.png","response":0,"category":"Boat","background_difficulty":"2","image_path":"images/Boat/With_Backgrounds/difficulty2_image2.png","trial_type":"image-button-response","trial_index":50,"time_elapsed":84472,"internal_node_id":"0.0-2.0-0.48"},{"rt":1310,"stimulus":"images/Dog/With_Backgrounds/difficulty1_image9.png","response":4,"category":"Dog","background_difficulty":"1","image_path":"images/Dog/With_Backgrounds/difficulty1_image9.png","trial_type":"image-button-response","trial_index":51,"time_elapsed":85783,"internal_node_id":"0.0-2.0-0.49"},{"rt":1694,"stimulus":"images/Car/With_Backgrounds/difficulty2_image8.png","response":2,"category":"Car","background_difficulty":"2","image_path":"images/Car/With_Backgrounds/difficulty2_image8.png","trial_type":"image-button-response","trial_index":52,"time_elapsed":87478,"internal_node_id":"0.0-2.0-0.50"},{"rt":1345,"stimulus":"images/Car/With_Backgrounds/difficulty5_image1.png","response":2,"category":"Car","background_difficulty":"5","image_path":"images/Car/With_Backgrounds/difficulty5_image1.png","trial_type":"image-button-response","trial_index":53,"time_elapsed":88825,"internal_node_id":"0.0-2.0-0.51"},{"rt":1676,"stimulus":"images/Cat/With_Backgrounds/difficulty2_image2.png","response":3,"category":"Cat","background_difficulty":"2","image_path":"images/Cat/With_Backgrounds/difficulty2_image2.png","trial_type":"image-button-response","trial_index":54,"time_elapsed":90502,"internal_node_id":"0.0-2.0-0.52"},{"rt":1360,"stimulus":"images/Car/With_Backgrounds/difficulty1_image0.png","response":2,"category":"Car","background_difficulty":"1","image_path":"images/Car/With_Backgrounds/difficulty1_image0.png","trial_type":"image-button-response","trial_index":55,"time_elapsed":91864,"internal_node_id":"0.0-2.0-0.53"},{"rt":2288,"stimulus":"images/Boat/With_Backgrounds/difficulty7_image9.png","response":0,"category":"Boat","background_difficulty":"7","image_path":"images/Boat/With_Backgrounds/difficulty7_image9.png","trial_type":"image-button-response","trial_index":56,"time_elapsed":94152,"internal_node_id":"0.0-2.0-0.54"},{"rt":1368,"stimulus":"images/Broccoli/With_Backgrounds/difficulty3_image6.png","response":1,"category":"Broccoli","background_difficulty":"3","image_path":"images/Broccoli/With_Backgrounds/difficulty3_image6.png","trial_type":"image-button-response","trial_index":57,"time_elapsed":95521,"internal_node_id":"0.0-2.0-0.55"},{"rt":1516,"stimulus":"images/Tree/With_Backgrounds/difficulty0_image3.png","response":6,"category":"Tree","background_difficulty":"0","image_path":"images/Tree/With_Backgrounds/difficulty0_image3.png","trial_type":"image-button-response","trial_index":58,"time_elapsed":97038,"internal_node_id":"0.0-2.0-0.56"},{"rt":1483,"stimulus":"images/Broccoli/With_Backgrounds/difficulty5_image1.png","response":1,"category":"Broccoli","background_difficulty":"5","image_path":"images/Broccoli/With_Backgrounds/difficulty5_image1.png","trial_type":"image-button-response","trial_index":59,"time_elapsed":98522,"internal_node_id":"0.0-2.0-0.57"},{"rt":1515,"stimulus":"images/Tree/With_Backgrounds/difficulty3_image1.png","response":6,"category":"Tree","background_difficulty":"3","image_path":"images/Tree/With_Backgrounds/difficulty3_image1.png","trial_type":"image-button-response","trial_index":60,"time_elapsed":100038,"internal_node_id":"0.0-2.0-0.58"},{"rt":1048,"stimulus":"images/Tree/With_Backgrounds/difficulty2_image8.png","response":6,"category":"Tree","background_difficulty":"2","image_path":"images/Tree/With_Backgrounds/difficulty2_image8.png","trial_type":"image-button-response","trial_index":61,"time_elapsed":101086,"internal_node_id":"0.0-2.0-0.59"},{"rt":2055,"stimulus":"images/Boat/With_Backgrounds/difficulty3_image4.png","response":0,"category":"Boat","background_difficulty":"3","image_path":"images/Boat/With_Backgrounds/difficulty3_image4.png","trial_type":"image-button-response","trial_index":62,"time_elapsed":103142,"internal_node_id":"0.0-2.0-0.60"},{"rt":1560,"stimulus":"images/Dog/With_Backgrounds/difficulty4_image1.png","response":4,"category":"Dog","background_difficulty":"4","image_path":"images/Dog/With_Backgrounds/difficulty4_image1.png","trial_type":"image-button-response","trial_index":63,"time_elapsed":104703,"internal_node_id":"0.0-2.0-0.61"},{"rt":1347,"stimulus":"images/Other/With_Backgrounds/difficulty5_image0.png","response":7,"category":"Other","background_difficulty":"5","image_path":"images/Other/With_Backgrounds/difficulty5_image0.png","trial_type":"image-button-response","trial_index":64,"time_elapsed":106051,"internal_node_id":"0.0-2.0-0.62"},{"rt":1615,"stimulus":"images/Boat/With_Backgrounds/difficulty5_image0.png","response":0,"category":"Boat","background_difficulty":"5","image_path":"images/Boat/With_Backgrounds/difficulty5_image0.png","trial_type":"image-button-response","trial_index":65,"time_elapsed":107667,"internal_node_id":"0.0-2.0-0.63"},{"rt":1462,"stimulus":"images/Broccoli/With_Backgrounds/difficulty7_image3.png","response":1,"category":"Broccoli","background_difficulty":"7","image_path":"images/Broccoli/With_Backgrounds/difficulty7_image3.png","trial_type":"image-button-response","trial_index":66,"time_elapsed":109130,"internal_node_id":"0.0-2.0-0.64"},{"rt":1668,"stimulus":"images/Tree/With_Backgrounds/difficulty7_image5.png","response":6,"category":"Tree","background_difficulty":"7","image_path":"images/Tree/With_Backgrounds/difficulty7_image5.png","trial_type":"image-button-response","trial_index":67,"time_elapsed":110799,"internal_node_id":"0.0-2.0-0.65"},{"rt":1848,"stimulus":"images/Cat/With_Backgrounds/difficulty5_image8.png","response":3,"category":"Cat","background_difficulty":"5","image_path":"images/Cat/With_Backgrounds/difficulty5_image8.png","trial_type":"image-button-response","trial_index":68,"time_elapsed":112648,"internal_node_id":"0.0-2.0-0.66"},{"rt":882,"stimulus":"images/Car/With_Backgrounds/difficulty4_image3.png","response":3,"category":"Car","background_difficulty":"4","image_path":"images/Car/With_Backgrounds/difficulty4_image3.png","trial_type":"image-button-response","trial_index":69,"time_elapsed":113531,"internal_node_id":"0.0-2.0-0.67"},{"rt":1870,"stimulus":"images/Human/With_Backgrounds/difficulty7_image9.png","response":5,"category":"Human","background_difficulty":"7","image_path":"images/Human/With_Backgrounds/difficulty7_image9.png","trial_type":"image-button-response","trial_index":70,"time_elapsed":115403,"internal_node_id":"0.0-2.0-0.68"},{"rt":2813,"stimulus":"images/Human/With_Backgrounds/difficulty8_image8.png","response":5,"category":"Human","background_difficulty":"8","image_path":"images/Human/With_Backgrounds/difficulty8_image8.png","trial_type":"image-button-response","trial_index":71,"time_elapsed":118217,"internal_node_id":"0.0-2.0-0.69"},{"rt":1095,"stimulus":"images/Other/With_Backgrounds/difficulty2_image7.png","response":7,"category":"Other","background_difficulty":"2","image_path":"images/Other/With_Backgrounds/difficulty2_image7.png","trial_type":"image-button-response","trial_index":72,"time_elapsed":119313,"internal_node_id":"0.0-2.0-0.70"},{"rt":1693,"stimulus":"images/Car/With_Backgrounds/difficulty8_image6.png","response":2,"category":"Car","background_difficulty":"8","image_path":"images/Car/With_Backgrounds/difficulty8_image6.png","trial_type":"image-button-response","trial_index":73,"time_elapsed":121007,"internal_node_id":"0.0-2.0-0.71"},{"rt":1392,"stimulus":["<h2>Press the button below to end experiment.</h2><p>Thank you for participating!</p>"],"response":0,"trial_type":"html-button-response","trial_index":74,"time_elapsed":122399,"internal_node_id":"0.0-3.0"}]