[{"success":true,"timeout":false,"failed_images":[],"failed_audio":[],"failed_video":[],"trial_type":"preload","trial_index":0,"time_elapsed":1555,"internal_node_id":"0.0-0.0"},{"rt":134048,"stimulus":["<h2>Noisy background image classification</h2><p>In this experiment you will briefly see images on top of colored squares of various sizes.</p><p>Your task is to report what each image is, selecting \"None of the Above\" if none of the given options are correct.</p> <p>The possible options are <strong>Boat</strong>, <strong>Broccoli</strong>, <strong>Car</strong>, <strong>Cat</strong>, <strong>Dog</strong>, <strong>Human</strong>, <strong>Tree</strong>, and <strong>None of the Above</strong>"],"response":0,"trial_type":"html-button-response","trial_index":1,"time_elapsed":135604,"internal_node_id":"0.0-1.0"},{"rt":5052,"stimulus":"images/Other/With_Backgrounds/difficulty1_image3.png","response":7,"category":"Other","background_difficulty":"1","image_path":"images/Other/With_Backgrounds/difficulty1_image3.png","trial_type":"image-button-response","trial_index":2,"time_elapsed":140668,"internal_node_id":"0.0-2.0-0.0"},{"rt":1447,"stimulus":"images/Tree/With_Backgrounds/difficulty6_image0.png","response":6,"category":"Tree","background_difficulty":"6","image_path":"images/Tree/With_Backgrounds/difficulty6_image0.png","trial_type":"image-button-response","trial_index":3,"time_elapsed":142117,"internal_node_id":"0.0-2.0-0.1"},{"rt":3407,"stimulus":"images/Other/With_Backgrounds/difficulty6_image8.png","response":7,"category":"Other","background_difficulty":"6","image_path":"images/Other/With_Backgrounds/difficulty6_image8.png","trial_type":"image-button-response","trial_index":4,"time_elapsed":145527,"internal_node_id":"0.0-2.0-0.2"},{"rt":1720,"stimulus":"images/Broccoli/With_Backgrounds/difficulty2_image6.png","response":1,"category":"Broccoli","background_difficulty":"2","image_path":"images/Broccoli/With_Backgrounds/difficulty2_image6.png","trial_type":"image-button-response","trial_index":5,"time_elapsed":147251,"internal_node_id":"0.0-2.0-0.3"},{"rt":2355,"stimulus":"images/Other/With_Backgrounds/difficulty2_image6.png","response":7,"category":"Other","background_difficulty":"2","image_path":"images/Other/With_Backgrounds/difficulty2_image6.png","trial_type":"image-button-response","trial_index":6,"time_elapsed":149608,"internal_node_id":"0.0-2.0-0.4"},{"rt":1840,"stimulus":"images/Boat/With_Backgrounds/difficulty5_image5.png","response":0,"category":"Boat","background_difficulty":"5","image_path":"images/Boat/With_Backgrounds/difficulty5_image5.png","trial_type":"image-button-response","trial_index":7,"time_elapsed":151451,"internal_node_id":"0.0-2.0-0.5"},{"rt":1463,"stimulus":"images/Car/With_Backgrounds/difficulty6_image4.png","response":2,"category":"Car","background_difficulty":"6","image_path":"images/Car/With_Backgrounds/difficulty6_image4.png","trial_type":"image-button-response","trial_index":8,"time_elapsed":152916,"internal_node_id":"0.0-2.0-0.6"},{"rt":1473,"stimulus":"images/Cat/With_Backgrounds/difficulty6_image3.png","response":3,"category":"Cat","background_difficulty":"6","image_path":"images/Cat/With_Backgrounds/difficulty6_image3.png","trial_type":"image-button-response","trial_index":9,"time_elapsed":154392,"internal_node_id":"0.0-2.0-0.7"},{"rt":1376,"stimulus":"images/Broccoli/With_Backgrounds/difficulty6_image3.png","response":1,"category":"Broccoli","background_difficulty":"6","image_path":"images/Broccoli/With_Backgrounds/difficulty6_image3.png","trial_type":"image-button-response","trial_index":10,"time_elapsed":155770,"internal_node_id":"0.0-2.0-0.8"},{"rt":4948,"stimulus":"images/Other/With_Backgrounds/difficulty4_image0.png","response":7,"category":"Other","background_difficulty":"4","image_path":"images/Other/With_Backgrounds/difficulty4_image0.png","trial_type":"image-button-response","trial_index":11,"time_elapsed":160721,"internal_node_id":"0.0-2.0-0.9"},{"rt":2145,"stimulus":"images/Car/With_Backgrounds/difficulty2_image5.png","response":2,"category":"Car","background_difficulty":"2","image_path":"images/Car/With_Backgrounds/difficulty2_image5.png","trial_type":"image-button-response","trial_index":12,"time_elapsed":162869,"internal_node_id":"0.0-2.0-0.10"},{"rt":1330,"stimulus":"images/Dog/With_Backgrounds/difficulty1_image0.png","response":4,"category":"Dog","background_difficulty":"1","image_path":"images/Dog/With_Backgrounds/difficulty1_image0.png","trial_type":"image-button-response","trial_index":13,"time_elapsed":164200,"internal_node_id":"0.0-2.0-0.11"},{"rt":1298,"stimulus":"images/Car/With_Backgrounds/difficulty5_image2.png","response":2,"category":"Car","background_difficulty":"5","image_path":"images/Car/With_Backgrounds/difficulty5_image2.png","trial_type":"image-button-response","trial_index":14,"time_elapsed":165501,"internal_node_id":"0.0-2.0-0.12"},{"rt":1152,"stimulus":"images/Dog/With_Backgrounds/difficulty6_image5.png","response":4,"category":"Dog","background_difficulty":"6","image_path":"images/Dog/With_Backgrounds/difficulty6_image5.png","trial_type":"image-button-response","trial_index":15,"time_elapsed":166655,"internal_node_id":"0.0-2.0-0.13"},{"rt":913,"stimulus":"images/Dog/With_Backgrounds/difficulty7_image6.png","response":4,"category":"Dog","background_difficulty":"7","image_path":"images/Dog/With_Backgrounds/difficulty7_image6.png","trial_type":"image-button-response","trial_index":16,"time_elapsed":167571,"internal_node_id":"0.0-2.0-0.14"},{"rt":1669,"stimulus":"images/Tree/With_Backgrounds/difficulty2_image3.png","response":6,"category":"Tree","background_difficulty":"2","image_path":"images/Tree/With_Backgrounds/difficulty2_image3.png","trial_type":"image-button-response","trial_index":17,"time_elapsed":169242,"internal_node_id":"0.0-2.0-0.15"},{"rt":1345,"stimulus":"images/Cat/With_Backgrounds/difficulty4_image5.png","response":3,"category":"Cat","background_difficulty":"4","image_path":"images/Cat/With_Backgrounds/difficulty4_image5.png","trial_type":"image-button-response","trial_index":18,"time_elapsed":170589,"internal_node_id":"0.0-2.0-0.16"},{"rt":1119,"stimulus":"images/Car/With_Backgrounds/difficulty1_image9.png","response":2,"category":"Car","background_difficulty":"1","image_path":"images/Car/With_Backgrounds/difficulty1_image9.png","trial_type":"image-button-response","trial_index":19,"time_elapsed":171710,"internal_node_id":"0.0-2.0-0.17"},{"rt":1123,"stimulus":"images/Dog/With_Backgrounds/difficulty2_image1.png","response":4,"category":"Dog","background_difficulty":"2","image_path":"images/Dog/With_Backgrounds/difficulty2_image1.png","trial_type":"image-button-response","trial_index":20,"time_elapsed":172837,"internal_node_id":"0.0-2.0-0.18"},{"rt":1322,"stimulus":"images/Human/With_Backgrounds/difficulty8_image4.png","response":5,"category":"Human","background_difficulty":"8","image_path":"images/Human/With_Backgrounds/difficulty8_image4.png","trial_type":"image-button-response","trial_index":21,"time_elapsed":174163,"internal_node_id":"0.0-2.0-0.19"},{"rt":1423,"stimulus":"images/Cat/With_Backgrounds/difficulty0_image4.png","response":3,"category":"Cat","background_difficulty":"0","image_path":"images/Cat/With_Backgrounds/difficulty0_image4.png","trial_type":"image-button-response","trial_index":22,"time_elapsed":175588,"internal_node_id":"0.0-2.0-0.20"},{"rt":1324,"stimulus":"images/Tree/With_Backgrounds/difficulty7_image9.png","response":6,"category":"Tree","background_difficulty":"7","image_path":"images/Tree/With_Backgrounds/difficulty7_image9.png","trial_type":"image-button-response","trial_index":23,"time_elapsed":176914,"internal_node_id":"0.0-2.0-0.21"},{"rt":1228,"stimulus":"images/Other/With_Backgrounds/difficulty8_image9.png","response":7,"category":"Other","background_difficulty":"8","image_path":"images/Other/With_Backgrounds/difficulty8_image9.png","trial_type":"image-button-response","trial_index":24,"time_elapsed":178144,"internal_node_id":"0.0-2.0-0.22"},{"rt":1242,"stimulus":"images/Tree/With_Backgrounds/difficulty8_image6.png","response":6,"category":"Tree","background_difficulty":"8","image_path":"images/Tree/With_Backgrounds/difficulty8_image6.png","trial_type":"image-button-response","trial_index":25,"time_elapsed":179390,"internal_node_id":"0.0-2.0-0.23"},{"rt":5475,"stimulus":"images/Human/With_Backgrounds/difficulty5_image1.png","response":5,"category":"Human","background_difficulty":"5","image_path":"images/Human/With_Backgrounds/difficulty5_image1.png","trial_type":"image-button-response","trial_index":26,"time_elapsed":184868,"internal_node_id":"0.0-2.0-0.24"},{"rt":1299,"stimulus":"images/Cat/With_Backgrounds/difficulty5_image9.png","response":3,"category":"Cat","background_difficulty":"5","image_path":"images/Cat/With_Backgrounds/difficulty5_image9.png","trial_type":"image-button-response","trial_index":27,"time_elapsed":186170,"internal_node_id":"0.0-2.0-0.25"},{"rt":906,"stimulus":"images/Cat/With_Backgrounds/difficulty1_image2.png","response":3,"category":"Cat","background_difficulty":"1","image_path":"images/Cat/With_Backgrounds/difficulty1_image2.png","trial_type":"image-button-response","trial_index":28,"time_elapsed":187079,"internal_node_id":"0.0-2.0-0.26"},{"rt":869,"stimulus":"images/Cat/With_Backgrounds/difficulty8_image1.png","response":3,"category":"Cat","background_difficulty":"8","image_path":"images/Cat/With_Backgrounds/difficulty8_image1.png","trial_type":"image-button-response","trial_index":29,"time_elapsed":187949,"internal_node_id":"0.0-2.0-0.27"},{"rt":1463,"stimulus":"images/Boat/With_Backgrounds/difficulty3_image4.png","response":0,"category":"Boat","background_difficulty":"3","image_path":"images/Boat/With_Backgrounds/difficulty3_image4.png","trial_type":"image-button-response","trial_index":30,"time_elapsed":189414,"internal_node_id":"0.0-2.0-0.28"},{"rt":1165,"stimulus":"images/Car/With_Backgrounds/difficulty7_image7.png","response":0,"category":"Car","background_difficulty":"7","image_path":"images/Car/With_Backgrounds/difficulty7_image7.png","trial_type":"image-button-response","trial_index":31,"time_elapsed":190582,"internal_node_id":"0.0-2.0-0.29"},{"rt":775,"stimulus":"images/Car/With_Backgrounds/difficulty0_image0.png","response":0,"category":"Car","background_difficulty":"0","image_path":"images/Car/With_Backgrounds/difficulty0_image0.png","trial_type":"image-button-response","trial_index":32,"time_elapsed":191359,"internal_node_id":"0.0-2.0-0.30"},{"rt":7146,"stimulus":"images/Broccoli/With_Backgrounds/difficulty5_image0.png","response":7,"category":"Broccoli","background_difficulty":"5","image_path":"images/Broccoli/With_Backgrounds/difficulty5_image0.png","trial_type":"image-button-response","trial_index":33,"time_elapsed":198508,"internal_node_id":"0.0-2.0-0.31"},{"rt":1327,"stimulus":"images/Dog/With_Backgrounds/difficulty4_image7.png","response":4,"category":"Dog","background_difficulty":"4","image_path":"images/Dog/With_Backgrounds/difficulty4_image7.png","trial_type":"image-button-response","trial_index":34,"time_elapsed":199838,"internal_node_id":"0.0-2.0-0.32"},{"rt":1086,"stimulus":"images/Human/With_Backgrounds/difficulty1_image8.png","response":5,"category":"Human","background_difficulty":"1","image_path":"images/Human/With_Backgrounds/difficulty1_image8.png","trial_type":"image-button-response","trial_index":35,"time_elapsed":200928,"internal_node_id":"0.0-2.0-0.33"},{"rt":1848,"stimulus":"images/Car/With_Backgrounds/difficulty8_image3.png","response":2,"category":"Car","background_difficulty":"8","image_path":"images/Car/With_Backgrounds/difficulty8_image3.png","trial_type":"image-button-response","trial_index":36,"time_elapsed":202778,"internal_node_id":"0.0-2.0-0.34"},{"rt":1532,"stimulus":"images/Broccoli/With_Backgrounds/difficulty0_image8.png","response":1,"category":"Broccoli","background_difficulty":"0","image_path":"images/Broccoli/With_Backgrounds/difficulty0_image8.png","trial_type":"image-button-response","trial_index":37,"time_elapsed":204312,"internal_node_id":"0.0-2.0-0.35"},{"rt":1668,"stimulus":"images/Other/With_Backgrounds/difficulty7_image1.png","response":7,"category":"Other","background_difficulty":"7","image_path":"images/Other/With_Backgrounds/difficulty7_image1.png","trial_type":"image-button-response","trial_index":38,"time_elapsed":205983,"internal_node_id":"0.0-2.0-0.36"},{"rt":1847,"stimulus":"images/Broccoli/With_Backgrounds/difficulty1_image5.png","response":1,"category":"Broccoli","background_difficulty":"1","image_path":"images/Broccoli/With_Backgrounds/difficulty1_image5.png","trial_type":"image-button-response","trial_index":39,"time_elapsed":207832,"internal_node_id":"0.0-2.0-0.37"},{"rt":1355,"stimulus":"images/Tree/With_Backgrounds/difficulty1_image1.png","response":6,"category":"Tree","background_difficulty":"1","image_path":"images/Tree/With_Backgrounds/difficulty1_image1.png","trial_type":"image-button-response","trial_index":40,"time_elapsed":209189,"internal_node_id":"0.0-2.0-0.38"},{"rt":1455,"stimulus":"images/Boat/With_Backgrounds/difficulty4_image9.png","response":0,"category":"Boat","background_difficulty":"4","image_path":"images/Boat/With_Backgrounds/difficulty4_image9.png","trial_type":"image-button-response","trial_index":41,"time_elapsed":210647,"internal_node_id":"0.0-2.0-0.39"},{"rt":1268,"stimulus":"images/Cat/With_Backgrounds/difficulty7_image8.png","response":3,"category":"Cat","background_difficulty":"7","image_path":"images/Cat/With_Backgrounds/difficulty7_image8.png","trial_type":"image-button-response","trial_index":42,"time_elapsed":211916,"internal_node_id":"0.0-2.0-0.40"},{"rt":1723,"stimulus":"images/Tree/With_Backgrounds/difficulty5_image8.png","response":6,"category":"Tree","background_difficulty":"5","image_path":"images/Tree/With_Backgrounds/difficulty5_image8.png","trial_type":"image-button-response","trial_index":43,"time_elapsed":213642,"internal_node_id":"0.0-2.0-0.41"},{"rt":3436,"stimulus":"images/Car/With_Backgrounds/difficulty4_image8.png","response":2,"category":"Car","background_difficulty":"4","image_path":"images/Car/With_Backgrounds/difficulty4_image8.png","trial_type":"image-button-response","trial_index":44,"time_elapsed":217081,"internal_node_id":"0.0-2.0-0.42"},{"rt":1800,"stimulus":"images/Boat/With_Backgrounds/difficulty1_image6.png","response":0,"category":"Boat","background_difficulty":"1","image_path":"images/Boat/With_Backgrounds/difficulty1_image6.png","trial_type":"image-button-response","trial_index":45,"time_elapsed":218883,"internal_node_id":"0.0-2.0-0.43"},{"rt":1917,"stimulus":"images/Human/With_Backgrounds/difficulty0_image2.png","response":5,"category":"Human","background_difficulty":"0","image_path":"images/Human/With_Backgrounds/difficulty0_image2.png","trial_type":"image-button-response","trial_index":46,"time_elapsed":220803,"internal_node_id":"0.0-2.0-0.44"},{"rt":1379,"stimulus":"images/Other/With_Backgrounds/difficulty3_image5.png","response":7,"category":"Other","background_difficulty":"3","image_path":"images/Other/With_Backgrounds/difficulty3_image5.png","trial_type":"image-button-response","trial_index":47,"time_elapsed":222183,"internal_node_id":"0.0-2.0-0.45"},{"rt":2240,"stimulus":"images/Human/With_Backgrounds/difficulty7_image6.png","response":5,"category":"Human","background_difficulty":"7","image_path":"images/Human/With_Backgrounds/difficulty7_image6.png","trial_type":"image-button-response","trial_index":48,"time_elapsed":224425,"internal_node_id":"0.0-2.0-0.46"},{"rt":991,"stimulus":"images/Cat/With_Backgrounds/difficulty3_image7.png","response":3,"category":"Cat","background_difficulty":"3","image_path":"images/Cat/With_Backgrounds/difficulty3_image7.png","trial_type":"image-button-response","trial_index":49,"time_elapsed":225419,"internal_node_id":"0.0-2.0-0.47"},{"rt":1325,"stimulus":"images/Boat/With_Backgrounds/difficulty0_image0.png","response":0,"category":"Boat","background_difficulty":"0","image_path":"images/Boat/With_Backgrounds/difficulty0_image0.png","trial_type":"image-button-response","trial_index":50,"time_elapsed":226745,"internal_node_id":"0.0-2.0-0.48"},{"rt":1220,"stimulus":"images/Human/With_Backgrounds/difficulty4_image7.png","response":5,"category":"Human","background_difficulty":"4","image_path":"images/Human/With_Backgrounds/difficulty4_image7.png","trial_type":"image-button-response","trial_index":51,"time_elapsed":227968,"internal_node_id":"0.0-2.0-0.49"},{"rt":1101,"stimulus":"images/Dog/With_Backgrounds/difficulty3_image9.png","response":4,"category":"Dog","background_difficulty":"3","image_path":"images/Dog/With_Backgrounds/difficulty3_image9.png","trial_type":"image-button-response","trial_index":52,"time_elapsed":229072,"internal_node_id":"0.0-2.0-0.50"},{"rt":1363,"stimulus":"images/Boat/With_Backgrounds/difficulty6_image8.png","response":0,"category":"Boat","background_difficulty":"6","image_path":"images/Boat/With_Backgrounds/difficulty6_image8.png","trial_type":"image-button-response","trial_index":53,"time_elapsed":230438,"internal_node_id":"0.0-2.0-0.51"},{"rt":1389,"stimulus":"images/Dog/With_Backgrounds/difficulty8_image2.png","response":4,"category":"Dog","background_difficulty":"8","image_path":"images/Dog/With_Backgrounds/difficulty8_image2.png","trial_type":"image-button-response","trial_index":54,"time_elapsed":231831,"internal_node_id":"0.0-2.0-0.52"},{"rt":986,"stimulus":"images/Cat/With_Backgrounds/difficulty2_image6.png","response":3,"category":"Cat","background_difficulty":"2","image_path":"images/Cat/With_Backgrounds/difficulty2_image6.png","trial_type":"image-button-response","trial_index":55,"time_elapsed":232819,"internal_node_id":"0.0-2.0-0.53"},{"rt":1570,"stimulus":"images/Tree/With_Backgrounds/difficulty3_image7.png","response":6,"category":"Tree","background_difficulty":"3","image_path":"images/Tree/With_Backgrounds/difficulty3_image7.png","trial_type":"image-button-response","trial_index":56,"time_elapsed":234393,"internal_node_id":"0.0-2.0-0.54"},{"rt":1183,"stimulus":"images/Boat/With_Backgrounds/difficulty8_image2.png","response":0,"category":"Boat","background_difficulty":"8","image_path":"images/Boat/With_Backgrounds/difficulty8_image2.png","trial_type":"image-button-response","trial_index":57,"time_elapsed":235578,"internal_node_id":"0.0-2.0-0.55"},{"rt":1182,"stimulus":"images/Tree/With_Backgrounds/difficulty4_image5.png","response":6,"category":"Tree","background_difficulty":"4","image_path":"images/Tree/With_Backgrounds/difficulty4_image5.png","trial_type":"image-button-response","trial_index":58,"time_elapsed":236762,"internal_node_id":"0.0-2.0-0.56"},{"rt":1416,"stimulus":"images/Broccoli/With_Backgrounds/difficulty8_image4.png","response":1,"category":"Broccoli","background_difficulty":"8","image_path":"images/Broccoli/With_Backgrounds/difficulty8_image4.png","trial_type":"image-button-response","trial_index":59,"time_elapsed":238182,"internal_node_id":"0.0-2.0-0.57"},{"rt":1179,"stimulus":"images/Boat/With_Backgrounds/difficulty2_image1.png","response":0,"category":"Boat","background_difficulty":"2","image_path":"images/Boat/With_Backgrounds/difficulty2_image1.png","trial_type":"image-button-response","trial_index":60,"time_elapsed":239363,"internal_node_id":"0.0-2.0-0.58"},{"rt":1606,"stimulus":"images/Other/With_Backgrounds/difficulty5_image4.png","response":7,"category":"Other","background_difficulty":"5","image_path":"images/Other/With_Backgrounds/difficulty5_image4.png","trial_type":"image-button-response","trial_index":61,"time_elapsed":240972,"internal_node_id":"0.0-2.0-0.59"},{"rt":1275,"stimulus":"images/Dog/With_Backgrounds/difficulty5_image3.png","response":4,"category":"Dog","background_difficulty":"5","image_path":"images/Dog/With_Backgrounds/difficulty5_image3.png","trial_type":"image-button-response","trial_index":62,"time_elapsed":242250,"internal_node_id":"0.0-2.0-0.60"},{"rt":20667,"stimulus":"images/Tree/With_Backgrounds/difficulty0_image2.png","response":6,"category":"Tree","background_difficulty":"0","image_path":"images/Tree/With_Backgrounds/difficulty0_image2.png","trial_type":"image-button-response","trial_index":63,"time_elapsed":262918,"internal_node_id":"0.0-2.0-0.61"},{"rt":963,"stimulus":"images/Human/With_Backgrounds/difficulty3_image5.png","response":5,"category":"Human","background_difficulty":"3","image_path":"images/Human/With_Backgrounds/difficulty3_image5.png","trial_type":"image-button-response","trial_index":64,"time_elapsed":263886,"internal_node_id":"0.0-2.0-0.62"},{"rt":1687,"stimulus":"images/Car/With_Backgrounds/difficulty3_image6.png","response":2,"category":"Car","background_difficulty":"3","image_path":"images/Car/With_Backgrounds/difficulty3_image6.png","trial_type":"image-button-response","trial_index":65,"time_elapsed":265574,"internal_node_id":"0.0-2.0-0.63"},{"rt":963,"stimulus":"images/Dog/With_Backgrounds/difficulty0_image4.png","response":4,"category":"Dog","background_difficulty":"0","image_path":"images/Dog/With_Backgrounds/difficulty0_image4.png","trial_type":"image-button-response","trial_index":66,"time_elapsed":266540,"internal_node_id":"0.0-2.0-0.64"},{"rt":1794,"stimulus":"images/Broccoli/With_Backgrounds/difficulty4_image1.png","response":1,"category":"Broccoli","background_difficulty":"4","image_path":"images/Broccoli/With_Backgrounds/difficulty4_image1.png","trial_type":"image-button-response","trial_index":67,"time_elapsed":268336,"internal_node_id":"0.0-2.0-0.65"},{"rt":2451,"stimulus":"images/Other/With_Backgrounds/difficulty0_image7.png","response":7,"category":"Other","background_difficulty":"0","image_path":"images/Other/With_Backgrounds/difficulty0_image7.png","trial_type":"image-button-response","trial_index":68,"time_elapsed":270789,"internal_node_id":"0.0-2.0-0.66"},{"rt":1007,"stimulus":"images/Human/With_Backgrounds/difficulty2_image9.png","response":5,"category":"Human","background_difficulty":"2","image_path":"images/Human/With_Backgrounds/difficulty2_image9.png","trial_type":"image-button-response","trial_index":69,"time_elapsed":271799,"internal_node_id":"0.0-2.0-0.67"},{"rt":1831,"stimulus":"images/Boat/With_Backgrounds/difficulty7_image7.png","response":7,"category":"Boat","background_difficulty":"7","image_path":"images/Boat/With_Backgrounds/difficulty7_image7.png","trial_type":"image-button-response","trial_index":70,"time_elapsed":273633,"internal_node_id":"0.0-2.0-0.68"},{"rt":1117,"stimulus":"images/Human/With_Backgrounds/difficulty6_image3.png","response":5,"category":"Human","background_difficulty":"6","image_path":"images/Human/With_Backgrounds/difficulty6_image3.png","trial_type":"image-button-response","trial_index":71,"time_elapsed":274754,"internal_node_id":"0.0-2.0-0.69"},{"rt":1456,"stimulus":"images/Broccoli/With_Backgrounds/difficulty7_image9.png","response":1,"category":"Broccoli","background_difficulty":"7","image_path":"images/Broccoli/With_Backgrounds/difficulty7_image9.png","trial_type":"image-button-response","trial_index":72,"time_elapsed":276213,"internal_node_id":"0.0-2.0-0.70"},{"rt":701,"stimulus":"images/Broccoli/With_Backgrounds/difficulty3_image2.png","response":1,"category":"Broccoli","background_difficulty":"3","image_path":"images/Broccoli/With_Backgrounds/difficulty3_image2.png","trial_type":"image-button-response","trial_index":73,"time_elapsed":276917,"internal_node_id":"0.0-2.0-0.71"},{"rt":1112,"stimulus":["<h2>Press the button below to end experiment.</h2><p>Thank you for participating!</p>"],"response":0,"trial_type":"html-button-response","trial_index":74,"time_elapsed":278030,"internal_node_id":"0.0-3.0"}]