[{"success":true,"timeout":false,"failed_images":[],"failed_audio":[],"failed_video":[],"trial_type":"preload","trial_index":0,"time_elapsed":2734,"internal_node_id":"0.0-0.0"},{"rt":2796,"stimulus":["<h2>Noisy background image classification</h2><p>In this experiment you will briefly see images on top of colored squares of various sizes.</p><p>Your task is to report what each image is, selecting \"None of the Above\" if none of the given options are correct.</p> <p>The possible options are <strong>Boat</strong>, <strong>Broccoli</strong>, <strong>Car</strong>, <strong>Cat</strong>, <strong>Dog</strong>, <strong>Human</strong>, <strong>Tree</strong>, and <strong>None of the Above</strong>"],"response":0,"trial_type":"html-button-response","trial_index":1,"time_elapsed":5534,"internal_node_id":"0.0-1.0"},{"rt":3990,"stimulus":"images/Human/With_Backgrounds/difficulty8_image8.png","response":5,"category":"Human","background_difficulty":"8","image_path":"images/Human/With_Backgrounds/difficulty8_image8.png","trial_type":"image-button-response","trial_index":2,"time_elapsed":9546,"internal_node_id":"0.0-2.0-0.0"},{"rt":2583,"stimulus":"images/Broccoli/With_Backgrounds/difficulty3_image8.png","response":1,"category":"Broccoli","background_difficulty":"3","image_path":"images/Broccoli/With_Backgrounds/difficulty3_image8.png","trial_type":"image-button-response","trial_index":3,"time_elapsed":12135,"internal_node_id":"0.0-2.0-0.1"},{"rt":5257,"stimulus":"images/Other/With_Backgrounds/difficulty7_image8.png","response":7,"category":"Other","background_difficulty":"7","image_path":"images/Other/With_Backgrounds/difficulty7_image8.png","trial_type":"image-button-response","trial_index":4,"time_elapsed":17398,"internal_node_id":"0.0-2.0-0.2"},{"rt":1675,"stimulus":"images/Tree/With_Backgrounds/difficulty3_image0.png","response":6,"category":"Tree","background_difficulty":"3","image_path":"images/Tree/With_Backgrounds/difficulty3_image0.png","trial_type":"image-button-response","trial_index":5,"time_elapsed":19080,"internal_node_id":"0.0-2.0-0.3"},{"rt":2377,"stimulus":"images/Other/With_Backgrounds/difficulty5_image1.png","response":7,"category":"Other","background_difficulty":"5","image_path":"images/Other/With_Backgrounds/difficulty5_image1.png","trial_type":"image-button-response","trial_index":6,"time_elapsed":21462,"internal_node_id":"0.0-2.0-0.4"},{"rt":1787,"stimulus":"images/Dog/With_Backgrounds/difficulty6_image5.png","response":4,"category":"Dog","background_difficulty":"6","image_path":"images/Dog/With_Backgrounds/difficulty6_image5.png","trial_type":"image-button-response","trial_index":7,"time_elapsed":23255,"internal_node_id":"0.0-2.0-0.5"},{"rt":1682,"stimulus":"images/Human/With_Backgrounds/difficulty1_image7.png","response":5,"category":"Human","background_difficulty":"1","image_path":"images/Human/With_Backgrounds/difficulty1_image7.png","trial_type":"image-button-response","trial_index":8,"time_elapsed":24944,"internal_node_id":"0.0-2.0-0.6"},{"rt":1111,"stimulus":"images/Human/With_Backgrounds/difficulty7_image1.png","response":5,"category":"Human","background_difficulty":"7","image_path":"images/Human/With_Backgrounds/difficulty7_image1.png","trial_type":"image-button-response","trial_index":9,"time_elapsed":26063,"internal_node_id":"0.0-2.0-0.7"},{"rt":1711,"stimulus":"images/Dog/With_Backgrounds/difficulty7_image7.png","response":4,"category":"Dog","background_difficulty":"7","image_path":"images/Dog/With_Backgrounds/difficulty7_image7.png","trial_type":"image-button-response","trial_index":10,"time_elapsed":27778,"internal_node_id":"0.0-2.0-0.8"},{"rt":4121,"stimulus":"images/Other/With_Backgrounds/difficulty4_image2.png","response":7,"category":"Other","background_difficulty":"4","image_path":"images/Other/With_Backgrounds/difficulty4_image2.png","trial_type":"image-button-response","trial_index":11,"time_elapsed":31903,"internal_node_id":"0.0-2.0-0.9"},{"rt":1576,"stimulus":"images/Other/With_Backgrounds/difficulty2_image6.png","response":7,"category":"Other","background_difficulty":"2","image_path":"images/Other/With_Backgrounds/difficulty2_image6.png","trial_type":"image-button-response","trial_index":12,"time_elapsed":33484,"internal_node_id":"0.0-2.0-0.10"},{"rt":1958,"stimulus":"images/Other/With_Backgrounds/difficulty8_image3.png","response":7,"category":"Other","background_difficulty":"8","image_path":"images/Other/With_Backgrounds/difficulty8_image3.png","trial_type":"image-button-response","trial_index":13,"time_elapsed":35447,"internal_node_id":"0.0-2.0-0.11"},{"rt":1905,"stimulus":"images/Tree/With_Backgrounds/difficulty6_image5.png","response":6,"category":"Tree","background_difficulty":"6","image_path":"images/Tree/With_Backgrounds/difficulty6_image5.png","trial_type":"image-button-response","trial_index":14,"time_elapsed":37358,"internal_node_id":"0.0-2.0-0.12"},{"rt":2067,"stimulus":"images/Boat/With_Backgrounds/difficulty2_image2.png","response":0,"category":"Boat","background_difficulty":"2","image_path":"images/Boat/With_Backgrounds/difficulty2_image2.png","trial_type":"image-button-response","trial_index":15,"time_elapsed":39430,"internal_node_id":"0.0-2.0-0.13"},{"rt":1988,"stimulus":"images/Car/With_Backgrounds/difficulty4_image4.png","response":2,"category":"Car","background_difficulty":"4","image_path":"images/Car/With_Backgrounds/difficulty4_image4.png","trial_type":"image-button-response","trial_index":16,"time_elapsed":41424,"internal_node_id":"0.0-2.0-0.14"},{"rt":1960,"stimulus":"images/Boat/With_Backgrounds/difficulty1_image7.png","response":0,"category":"Boat","background_difficulty":"1","image_path":"images/Boat/With_Backgrounds/difficulty1_image7.png","trial_type":"image-button-response","trial_index":17,"time_elapsed":43391,"internal_node_id":"0.0-2.0-0.15"},{"rt":1660,"stimulus":"images/Tree/With_Backgrounds/difficulty7_image9.png","response":6,"category":"Tree","background_difficulty":"7","image_path":"images/Tree/With_Backgrounds/difficulty7_image9.png","trial_type":"image-button-response","trial_index":18,"time_elapsed":45056,"internal_node_id":"0.0-2.0-0.16"},{"rt":1298,"stimulus":"images/Human/With_Backgrounds/difficulty5_image0.png","response":5,"category":"Human","background_difficulty":"5","image_path":"images/Human/With_Backgrounds/difficulty5_image0.png","trial_type":"image-button-response","trial_index":19,"time_elapsed":46360,"internal_node_id":"0.0-2.0-0.17"},{"rt":1560,"stimulus":"images/Broccoli/With_Backgrounds/difficulty5_image3.png","response":1,"category":"Broccoli","background_difficulty":"5","image_path":"images/Broccoli/With_Backgrounds/difficulty5_image3.png","trial_type":"image-button-response","trial_index":20,"time_elapsed":47925,"internal_node_id":"0.0-2.0-0.18"},{"rt":1580,"stimulus":"images/Other/With_Backgrounds/difficulty1_image0.png","response":7,"category":"Other","background_difficulty":"1","image_path":"images/Other/With_Backgrounds/difficulty1_image0.png","trial_type":"image-button-response","trial_index":21,"time_elapsed":49509,"internal_node_id":"0.0-2.0-0.19"},{"rt":1783,"stimulus":"images/Car/With_Backgrounds/difficulty7_image8.png","response":2,"category":"Car","background_difficulty":"7","image_path":"images/Car/With_Backgrounds/difficulty7_image8.png","trial_type":"image-button-response","trial_index":22,"time_elapsed":51297,"internal_node_id":"0.0-2.0-0.20"},{"rt":1455,"stimulus":"images/Tree/With_Backgrounds/difficulty0_image1.png","response":6,"category":"Tree","background_difficulty":"0","image_path":"images/Tree/With_Backgrounds/difficulty0_image1.png","trial_type":"image-button-response","trial_index":23,"time_elapsed":52759,"internal_node_id":"0.0-2.0-0.21"},{"rt":1220,"stimulus":"images/Human/With_Backgrounds/difficulty2_image9.png","response":5,"category":"Human","background_difficulty":"2","image_path":"images/Human/With_Backgrounds/difficulty2_image9.png","trial_type":"image-button-response","trial_index":24,"time_elapsed":53983,"internal_node_id":"0.0-2.0-0.22"},{"rt":1425,"stimulus":"images/Cat/With_Backgrounds/difficulty2_image9.png","response":3,"category":"Cat","background_difficulty":"2","image_path":"images/Cat/With_Backgrounds/difficulty2_image9.png","trial_type":"image-button-response","trial_index":25,"time_elapsed":55415,"internal_node_id":"0.0-2.0-0.23"},{"rt":2290,"stimulus":"images/Broccoli/With_Backgrounds/difficulty7_image9.png","response":1,"category":"Broccoli","background_difficulty":"7","image_path":"images/Broccoli/With_Backgrounds/difficulty7_image9.png","trial_type":"image-button-response","trial_index":26,"time_elapsed":57710,"internal_node_id":"0.0-2.0-0.24"},{"rt":1916,"stimulus":"images/Boat/With_Backgrounds/difficulty4_image6.png","response":0,"category":"Boat","background_difficulty":"4","image_path":"images/Boat/With_Backgrounds/difficulty4_image6.png","trial_type":"image-button-response","trial_index":27,"time_elapsed":59632,"internal_node_id":"0.0-2.0-0.25"},{"rt":1706,"stimulus":"images/Car/With_Backgrounds/difficulty2_image1.png","response":2,"category":"Car","background_difficulty":"2","image_path":"images/Car/With_Backgrounds/difficulty2_image1.png","trial_type":"image-button-response","trial_index":28,"time_elapsed":61343,"internal_node_id":"0.0-2.0-0.26"},{"rt":1186,"stimulus":"images/Car/With_Backgrounds/difficulty8_image9.png","response":2,"category":"Car","background_difficulty":"8","image_path":"images/Car/With_Backgrounds/difficulty8_image9.png","trial_type":"image-button-response","trial_index":29,"time_elapsed":62535,"internal_node_id":"0.0-2.0-0.27"},{"rt":1435,"stimulus":"images/Tree/With_Backgrounds/difficulty8_image6.png","response":6,"category":"Tree","background_difficulty":"8","image_path":"images/Tree/With_Backgrounds/difficulty8_image6.png","trial_type":"image-button-response","trial_index":30,"time_elapsed":63977,"internal_node_id":"0.0-2.0-0.28"},{"rt":1360,"stimulus":"images/Other/With_Backgrounds/difficulty6_image7.png","response":7,"category":"Other","background_difficulty":"6","image_path":"images/Other/With_Backgrounds/difficulty6_image7.png","trial_type":"image-button-response","trial_index":31,"time_elapsed":65343,"internal_node_id":"0.0-2.0-0.29"},{"rt":2027,"stimulus":"images/Car/With_Backgrounds/difficulty1_image2.png","response":2,"category":"Car","background_difficulty":"1","image_path":"images/Car/With_Backgrounds/difficulty1_image2.png","trial_type":"image-button-response","trial_index":32,"time_elapsed":67375,"internal_node_id":"0.0-2.0-0.30"},{"rt":2658,"stimulus":"images/Boat/With_Backgrounds/difficulty6_image9.png","response":0,"category":"Boat","background_difficulty":"6","image_path":"images/Boat/With_Backgrounds/difficulty6_image9.png","trial_type":"image-button-response","trial_index":33,"time_elapsed":70040,"internal_node_id":"0.0-2.0-0.31"},{"rt":1274,"stimulus":"images/Human/With_Backgrounds/difficulty0_image6.png","response":5,"category":"Human","background_difficulty":"0","image_path":"images/Human/With_Backgrounds/difficulty0_image6.png","trial_type":"image-button-response","trial_index":34,"time_elapsed":71320,"internal_node_id":"0.0-2.0-0.32"},{"rt":2307,"stimulus":"images/Broccoli/With_Backgrounds/difficulty4_image2.png","response":1,"category":"Broccoli","background_difficulty":"4","image_path":"images/Broccoli/With_Backgrounds/difficulty4_image2.png","trial_type":"image-button-response","trial_index":35,"time_elapsed":73632,"internal_node_id":"0.0-2.0-0.33"},{"rt":1177,"stimulus":"images/Tree/With_Backgrounds/difficulty2_image3.png","response":6,"category":"Tree","background_difficulty":"2","image_path":"images/Tree/With_Backgrounds/difficulty2_image3.png","trial_type":"image-button-response","trial_index":36,"time_elapsed":74814,"internal_node_id":"0.0-2.0-0.34"},{"rt":3333,"stimulus":"images/Boat/With_Backgrounds/difficulty5_image5.png","response":0,"category":"Boat","background_difficulty":"5","image_path":"images/Boat/With_Backgrounds/difficulty5_image5.png","trial_type":"image-button-response","trial_index":37,"time_elapsed":78152,"internal_node_id":"0.0-2.0-0.35"},{"rt":1345,"stimulus":"images/Tree/With_Backgrounds/difficulty1_image2.png","response":6,"category":"Tree","background_difficulty":"1","image_path":"images/Tree/With_Backgrounds/difficulty1_image2.png","trial_type":"image-button-response","trial_index":38,"time_elapsed":79502,"internal_node_id":"0.0-2.0-0.36"},{"rt":906,"stimulus":"images/Tree/With_Backgrounds/difficulty4_image8.png","response":6,"category":"Tree","background_difficulty":"4","image_path":"images/Tree/With_Backgrounds/difficulty4_image8.png","trial_type":"image-button-response","trial_index":39,"time_elapsed":80414,"internal_node_id":"0.0-2.0-0.37"},{"rt":1260,"stimulus":"images/Dog/With_Backgrounds/difficulty0_image0.png","response":4,"category":"Dog","background_difficulty":"0","image_path":"images/Dog/With_Backgrounds/difficulty0_image0.png","trial_type":"image-button-response","trial_index":40,"time_elapsed":81679,"internal_node_id":"0.0-2.0-0.38"},{"rt":1556,"stimulus":"images/Cat/With_Backgrounds/difficulty6_image1.png","response":3,"category":"Cat","background_difficulty":"6","image_path":"images/Cat/With_Backgrounds/difficulty6_image1.png","trial_type":"image-button-response","trial_index":41,"time_elapsed":83241,"internal_node_id":"0.0-2.0-0.39"},{"rt":1633,"stimulus":"images/Dog/With_Backgrounds/difficulty5_image2.png","response":4,"category":"Dog","background_difficulty":"5","image_path":"images/Dog/With_Backgrounds/difficulty5_image2.png","trial_type":"image-button-response","trial_index":42,"time_elapsed":84879,"internal_node_id":"0.0-2.0-0.40"},{"rt":1626,"stimulus":"images/Broccoli/With_Backgrounds/difficulty8_image4.png","response":1,"category":"Broccoli","background_difficulty":"8","image_path":"images/Broccoli/With_Backgrounds/difficulty8_image4.png","trial_type":"image-button-response","trial_index":43,"time_elapsed":86510,"internal_node_id":"0.0-2.0-0.41"},{"rt":1675,"stimulus":"images/Car/With_Backgrounds/difficulty5_image0.png","response":2,"category":"Car","background_difficulty":"5","image_path":"images/Car/With_Backgrounds/difficulty5_image0.png","trial_type":"image-button-response","trial_index":44,"time_elapsed":88191,"internal_node_id":"0.0-2.0-0.42"},{"rt":1099,"stimulus":"images/Car/With_Backgrounds/difficulty6_image7.png","response":2,"category":"Car","background_difficulty":"6","image_path":"images/Car/With_Backgrounds/difficulty6_image7.png","trial_type":"image-button-response","trial_index":45,"time_elapsed":89296,"internal_node_id":"0.0-2.0-0.43"},{"rt":1280,"stimulus":"images/Dog/With_Backgrounds/difficulty4_image9.png","response":4,"category":"Dog","background_difficulty":"4","image_path":"images/Dog/With_Backgrounds/difficulty4_image9.png","trial_type":"image-button-response","trial_index":46,"time_elapsed":90582,"internal_node_id":"0.0-2.0-0.44"},{"rt":1060,"stimulus":"images/Dog/With_Backgrounds/difficulty2_image3.png","response":4,"category":"Dog","background_difficulty":"2","image_path":"images/Dog/With_Backgrounds/difficulty2_image3.png","trial_type":"image-button-response","trial_index":47,"time_elapsed":91648,"internal_node_id":"0.0-2.0-0.45"},{"rt":1377,"stimulus":"images/Broccoli/With_Backgrounds/difficulty2_image1.png","response":1,"category":"Broccoli","background_difficulty":"2","image_path":"images/Broccoli/With_Backgrounds/difficulty2_image1.png","trial_type":"image-button-response","trial_index":48,"time_elapsed":93031,"internal_node_id":"0.0-2.0-0.46"},{"rt":1266,"stimulus":"images/Cat/With_Backgrounds/difficulty4_image5.png","response":3,"category":"Cat","background_difficulty":"4","image_path":"images/Cat/With_Backgrounds/difficulty4_image5.png","trial_type":"image-button-response","trial_index":49,"time_elapsed":94303,"internal_node_id":"0.0-2.0-0.47"},{"rt":1361,"stimulus":"images/Boat/With_Backgrounds/difficulty7_image8.png","response":0,"category":"Boat","background_difficulty":"7","image_path":"images/Boat/With_Backgrounds/difficulty7_image8.png","trial_type":"image-button-response","trial_index":50,"time_elapsed":95669,"internal_node_id":"0.0-2.0-0.48"},{"rt":1189,"stimulus":"images/Broccoli/With_Backgrounds/difficulty6_image5.png","response":1,"category":"Broccoli","background_difficulty":"6","image_path":"images/Broccoli/With_Backgrounds/difficulty6_image5.png","trial_type":"image-button-response","trial_index":51,"time_elapsed":96862,"internal_node_id":"0.0-2.0-0.49"},{"rt":1404,"stimulus":"images/Cat/With_Backgrounds/difficulty7_image0.png","response":3,"category":"Cat","background_difficulty":"7","image_path":"images/Cat/With_Backgrounds/difficulty7_image0.png","trial_type":"image-button-response","trial_index":52,"time_elapsed":98272,"internal_node_id":"0.0-2.0-0.50"},{"rt":1065,"stimulus":"images/Cat/With_Backgrounds/difficulty5_image6.png","response":3,"category":"Cat","background_difficulty":"5","image_path":"images/Cat/With_Backgrounds/difficulty5_image6.png","trial_type":"image-button-response","trial_index":53,"time_elapsed":99342,"internal_node_id":"0.0-2.0-0.51"},{"rt":1195,"stimulus":"images/Human/With_Backgrounds/difficulty4_image3.png","response":5,"category":"Human","background_difficulty":"4","image_path":"images/Human/With_Backgrounds/difficulty4_image3.png","trial_type":"image-button-response","trial_index":54,"time_elapsed":100543,"internal_node_id":"0.0-2.0-0.52"},{"rt":1274,"stimulus":"images/Broccoli/With_Backgrounds/difficulty0_image6.png","response":1,"category":"Broccoli","background_difficulty":"0","image_path":"images/Broccoli/With_Backgrounds/difficulty0_image6.png","trial_type":"image-button-response","trial_index":55,"time_elapsed":101822,"internal_node_id":"0.0-2.0-0.53"},{"rt":1748,"stimulus":"images/Car/With_Backgrounds/difficulty0_image6.png","response":2,"category":"Car","background_difficulty":"0","image_path":"images/Car/With_Backgrounds/difficulty0_image6.png","trial_type":"image-button-response","trial_index":56,"time_elapsed":103575,"internal_node_id":"0.0-2.0-0.54"},{"rt":1161,"stimulus":"images/Dog/With_Backgrounds/difficulty1_image6.png","response":4,"category":"Dog","background_difficulty":"1","image_path":"images/Dog/With_Backgrounds/difficulty1_image6.png","trial_type":"image-button-response","trial_index":57,"time_elapsed":104742,"internal_node_id":"0.0-2.0-0.55"},{"rt":1403,"stimulus":"images/Boat/With_Backgrounds/difficulty3_image3.png","response":0,"category":"Boat","background_difficulty":"3","image_path":"images/Boat/With_Backgrounds/difficulty3_image3.png","trial_type":"image-button-response","trial_index":58,"time_elapsed":106151,"internal_node_id":"0.0-2.0-0.56"},{"rt":1611,"stimulus":"images/Cat/With_Backgrounds/difficulty8_image4.png","response":3,"category":"Cat","background_difficulty":"8","image_path":"images/Cat/With_Backgrounds/difficulty8_image4.png","trial_type":"image-button-response","trial_index":59,"time_elapsed":107767,"internal_node_id":"0.0-2.0-0.57"},{"rt":1323,"stimulus":"images/Broccoli/With_Backgrounds/difficulty1_image7.png","response":1,"category":"Broccoli","background_difficulty":"1","image_path":"images/Broccoli/With_Backgrounds/difficulty1_image7.png","trial_type":"image-button-response","trial_index":60,"time_elapsed":109095,"internal_node_id":"0.0-2.0-0.58"},{"rt":1713,"stimulus":"images/Tree/With_Backgrounds/difficulty5_image4.png","response":6,"category":"Tree","background_difficulty":"5","image_path":"images/Tree/With_Backgrounds/difficulty5_image4.png","trial_type":"image-button-response","trial_index":61,"time_elapsed":110814,"internal_node_id":"0.0-2.0-0.59"},{"rt":1491,"stimulus":"images/Dog/With_Backgrounds/difficulty3_image4.png","response":4,"category":"Dog","background_difficulty":"3","image_path":"images/Dog/With_Backgrounds/difficulty3_image4.png","trial_type":"image-button-response","trial_index":62,"time_elapsed":112311,"internal_node_id":"0.0-2.0-0.60"},{"rt":1611,"stimulus":"images/Car/With_Backgrounds/difficulty3_image3.png","response":2,"category":"Car","background_difficulty":"3","image_path":"images/Car/With_Backgrounds/difficulty3_image3.png","trial_type":"image-button-response","trial_index":63,"time_elapsed":113927,"internal_node_id":"0.0-2.0-0.61"},{"rt":1002,"stimulus":"images/Human/With_Backgrounds/difficulty3_image2.png","response":5,"category":"Human","background_difficulty":"3","image_path":"images/Human/With_Backgrounds/difficulty3_image2.png","trial_type":"image-button-response","trial_index":64,"time_elapsed":114934,"internal_node_id":"0.0-2.0-0.62"},{"rt":1524,"stimulus":"images/Cat/With_Backgrounds/difficulty0_image3.png","response":3,"category":"Cat","background_difficulty":"0","image_path":"images/Cat/With_Backgrounds/difficulty0_image3.png","trial_type":"image-button-response","trial_index":65,"time_elapsed":116464,"internal_node_id":"0.0-2.0-0.63"},{"rt":1114,"stimulus":"images/Human/With_Backgrounds/difficulty6_image5.png","response":5,"category":"Human","background_difficulty":"6","image_path":"images/Human/With_Backgrounds/difficulty6_image5.png","trial_type":"image-button-response","trial_index":66,"time_elapsed":117583,"internal_node_id":"0.0-2.0-0.64"},{"rt":1259,"stimulus":"images/Dog/With_Backgrounds/difficulty8_image1.png","response":4,"category":"Dog","background_difficulty":"8","image_path":"images/Dog/With_Backgrounds/difficulty8_image1.png","trial_type":"image-button-response","trial_index":67,"time_elapsed":118848,"internal_node_id":"0.0-2.0-0.65"},{"rt":2504,"stimulus":"images/Cat/With_Backgrounds/difficulty3_image7.png","response":2,"category":"Cat","background_difficulty":"3","image_path":"images/Cat/With_Backgrounds/difficulty3_image7.png","trial_type":"image-button-response","trial_index":68,"time_elapsed":121358,"internal_node_id":"0.0-2.0-0.66"},{"rt":2115,"stimulus":"images/Other/With_Backgrounds/difficulty0_image9.png","response":7,"category":"Other","background_difficulty":"0","image_path":"images/Other/With_Backgrounds/difficulty0_image9.png","trial_type":"image-button-response","trial_index":69,"time_elapsed":123479,"internal_node_id":"0.0-2.0-0.67"},{"rt":1675,"stimulus":"images/Other/With_Backgrounds/difficulty3_image5.png","response":7,"category":"Other","background_difficulty":"3","image_path":"images/Other/With_Backgrounds/difficulty3_image5.png","trial_type":"image-button-response","trial_index":70,"time_elapsed":125159,"internal_node_id":"0.0-2.0-0.68"},{"rt":1571,"stimulus":"images/Boat/With_Backgrounds/difficulty8_image0.png","response":0,"category":"Boat","background_difficulty":"8","image_path":"images/Boat/With_Backgrounds/difficulty8_image0.png","trial_type":"image-button-response","trial_index":71,"time_elapsed":126735,"internal_node_id":"0.0-2.0-0.69"},{"rt":1162,"stimulus":"images/Boat/With_Backgrounds/difficulty0_image4.png","response":0,"category":"Boat","background_difficulty":"0","image_path":"images/Boat/With_Backgrounds/difficulty0_image4.png","trial_type":"image-button-response","trial_index":72,"time_elapsed":127902,"internal_node_id":"0.0-2.0-0.70"},{"rt":2611,"stimulus":"images/Cat/With_Backgrounds/difficulty1_image2.png","response":3,"category":"Cat","background_difficulty":"1","image_path":"images/Cat/With_Backgrounds/difficulty1_image2.png","trial_type":"image-button-response","trial_index":73,"time_elapsed":130519,"internal_node_id":"0.0-2.0-0.71"},{"rt":1525,"stimulus":["<h2>Press the button below to end experiment.</h2><p>Thank you for participating!</p>"],"response":0,"trial_type":"html-button-response","trial_index":74,"time_elapsed":132049,"internal_node_id":"0.0-3.0"}]