[{"success":true,"timeout":false,"failed_images":[],"failed_audio":[],"failed_video":[],"trial_type":"preload","trial_index":0,"time_elapsed":2736,"internal_node_id":"0.0-0.0"},{"rt":10576,"stimulus":["<h2>Noisy background image classification</h2><p>In this experiment you will briefly see images on top of colored squares of various sizes.</p><p>Your task is to report what each image is, selecting \"None of the Above\" if none of the given options are correct.</p> <p>The possible options are <strong>Boat</strong>, <strong>Broccoli</strong>, <strong>Car</strong>, <strong>Cat</strong>, <strong>Dog</strong>, <strong>Human</strong>, <strong>Tree</strong>, and <strong>None of the Above</strong>"],"response":0,"trial_type":"html-button-response","trial_index":1,"time_elapsed":13314,"internal_node_id":"0.0-1.0"},{"rt":2751,"stimulus":"images/Cat/With_Backgrounds/difficulty0_image0.png","response":3,"category":"Cat","background_difficulty":"0","image_path":"images/Cat/With_Backgrounds/difficulty0_image0.png","trial_type":"image-button-response","trial_index":2,"time_elapsed":16099,"internal_node_id":"0.0-2.0-0.0"},{"rt":1609,"stimulus":"images/Human/With_Backgrounds/difficulty3_image8.png","response":5,"category":"Human","background_difficulty":"3","image_path":"images/Human/With_Backgrounds/difficulty3_image8.png","trial_type":"image-button-response","trial_index":3,"time_elapsed":17714,"internal_node_id":"0.0-2.0-0.1"},{"rt":4551,"stimulus":"images/Tree/With_Backgrounds/difficulty3_image6.png","response":6,"category":"Tree","background_difficulty":"3","image_path":"images/Tree/With_Backgrounds/difficulty3_image6.png","trial_type":"image-button-response","trial_index":4,"time_elapsed":22272,"internal_node_id":"0.0-2.0-0.2"},{"rt":2507,"stimulus":"images/Car/With_Backgrounds/difficulty1_image7.png","response":2,"category":"Car","background_difficulty":"1","image_path":"images/Car/With_Backgrounds/difficulty1_image7.png","trial_type":"image-button-response","trial_index":5,"time_elapsed":24783,"internal_node_id":"0.0-2.0-0.3"},{"rt":1490,"stimulus":"images/Cat/With_Backgrounds/difficulty2_image9.png","response":3,"category":"Cat","background_difficulty":"2","image_path":"images/Cat/With_Backgrounds/difficulty2_image9.png","trial_type":"image-button-response","trial_index":6,"time_elapsed":26278,"internal_node_id":"0.0-2.0-0.4"},{"rt":1950,"stimulus":"images/Car/With_Backgrounds/difficulty7_image1.png","response":2,"category":"Car","background_difficulty":"7","image_path":"images/Car/With_Backgrounds/difficulty7_image1.png","trial_type":"image-button-response","trial_index":7,"time_elapsed":28233,"internal_node_id":"0.0-2.0-0.5"},{"rt":1549,"stimulus":"images/Dog/With_Backgrounds/difficulty1_image2.png","response":4,"category":"Dog","background_difficulty":"1","image_path":"images/Dog/With_Backgrounds/difficulty1_image2.png","trial_type":"image-button-response","trial_index":8,"time_elapsed":29786,"internal_node_id":"0.0-2.0-0.6"},{"rt":2410,"stimulus":"images/Cat/With_Backgrounds/difficulty4_image2.png","response":3,"category":"Cat","background_difficulty":"4","image_path":"images/Cat/With_Backgrounds/difficulty4_image2.png","trial_type":"image-button-response","trial_index":9,"time_elapsed":32200,"internal_node_id":"0.0-2.0-0.7"},{"rt":1838,"stimulus":"images/Boat/With_Backgrounds/difficulty2_image4.png","response":0,"category":"Boat","background_difficulty":"2","image_path":"images/Boat/With_Backgrounds/difficulty2_image4.png","trial_type":"image-button-response","trial_index":10,"time_elapsed":34042,"internal_node_id":"0.0-2.0-0.8"},{"rt":2298,"stimulus":"images/Dog/With_Backgrounds/difficulty7_image1.png","response":4,"category":"Dog","background_difficulty":"7","image_path":"images/Dog/With_Backgrounds/difficulty7_image1.png","trial_type":"image-button-response","trial_index":11,"time_elapsed":36345,"internal_node_id":"0.0-2.0-0.9"},{"rt":4244,"stimulus":"images/Other/With_Backgrounds/difficulty1_image4.png","response":7,"category":"Other","background_difficulty":"1","image_path":"images/Other/With_Backgrounds/difficulty1_image4.png","trial_type":"image-button-response","trial_index":12,"time_elapsed":40593,"internal_node_id":"0.0-2.0-0.10"},{"rt":2452,"stimulus":"images/Boat/With_Backgrounds/difficulty4_image1.png","response":0,"category":"Boat","background_difficulty":"4","image_path":"images/Boat/With_Backgrounds/difficulty4_image1.png","trial_type":"image-button-response","trial_index":13,"time_elapsed":43050,"internal_node_id":"0.0-2.0-0.11"},{"rt":1255,"stimulus":"images/Boat/With_Backgrounds/difficulty5_image5.png","response":0,"category":"Boat","background_difficulty":"5","image_path":"images/Boat/With_Backgrounds/difficulty5_image5.png","trial_type":"image-button-response","trial_index":14,"time_elapsed":44310,"internal_node_id":"0.0-2.0-0.12"},{"rt":1207,"stimulus":"images/Broccoli/With_Backgrounds/difficulty6_image2.png","response":1,"category":"Broccoli","background_difficulty":"6","image_path":"images/Broccoli/With_Backgrounds/difficulty6_image2.png","trial_type":"image-button-response","trial_index":15,"time_elapsed":45522,"internal_node_id":"0.0-2.0-0.13"},{"rt":2758,"stimulus":"images/Other/With_Backgrounds/difficulty8_image0.png","response":7,"category":"Other","background_difficulty":"8","image_path":"images/Other/With_Backgrounds/difficulty8_image0.png","trial_type":"image-button-response","trial_index":16,"time_elapsed":48285,"internal_node_id":"0.0-2.0-0.14"},{"rt":1603,"stimulus":"images/Dog/With_Backgrounds/difficulty8_image8.png","response":4,"category":"Dog","background_difficulty":"8","image_path":"images/Dog/With_Backgrounds/difficulty8_image8.png","trial_type":"image-button-response","trial_index":17,"time_elapsed":49892,"internal_node_id":"0.0-2.0-0.15"},{"rt":2548,"stimulus":"images/Car/With_Backgrounds/difficulty8_image3.png","response":2,"category":"Car","background_difficulty":"8","image_path":"images/Car/With_Backgrounds/difficulty8_image3.png","trial_type":"image-button-response","trial_index":18,"time_elapsed":52445,"internal_node_id":"0.0-2.0-0.16"},{"rt":1281,"stimulus":"images/Dog/With_Backgrounds/difficulty0_image9.png","response":4,"category":"Dog","background_difficulty":"0","image_path":"images/Dog/With_Backgrounds/difficulty0_image9.png","trial_type":"image-button-response","trial_index":19,"time_elapsed":53731,"internal_node_id":"0.0-2.0-0.17"},{"rt":1238,"stimulus":"images/Broccoli/With_Backgrounds/difficulty8_image5.png","response":1,"category":"Broccoli","background_difficulty":"8","image_path":"images/Broccoli/With_Backgrounds/difficulty8_image5.png","trial_type":"image-button-response","trial_index":20,"time_elapsed":54974,"internal_node_id":"0.0-2.0-0.18"},{"rt":2119,"stimulus":"images/Dog/With_Backgrounds/difficulty3_image6.png","response":4,"category":"Dog","background_difficulty":"3","image_path":"images/Dog/With_Backgrounds/difficulty3_image6.png","trial_type":"image-button-response","trial_index":21,"time_elapsed":57098,"internal_node_id":"0.0-2.0-0.19"},{"rt":1023,"stimulus":"images/Dog/With_Backgrounds/difficulty6_image4.png","response":4,"category":"Dog","background_difficulty":"6","image_path":"images/Dog/With_Backgrounds/difficulty6_image4.png","trial_type":"image-button-response","trial_index":22,"time_elapsed":58123,"internal_node_id":"0.0-2.0-0.20"},{"rt":1450,"stimulus":"images/Human/With_Backgrounds/difficulty8_image3.png","response":5,"category":"Human","background_difficulty":"8","image_path":"images/Human/With_Backgrounds/difficulty8_image3.png","trial_type":"image-button-response","trial_index":23,"time_elapsed":59577,"internal_node_id":"0.0-2.0-0.21"},{"rt":1816,"stimulus":"images/Broccoli/With_Backgrounds/difficulty7_image9.png","response":1,"category":"Broccoli","background_difficulty":"7","image_path":"images/Broccoli/With_Backgrounds/difficulty7_image9.png","trial_type":"image-button-response","trial_index":24,"time_elapsed":61398,"internal_node_id":"0.0-2.0-0.22"},{"rt":3605,"stimulus":"images/Tree/With_Backgrounds/difficulty6_image7.png","response":7,"category":"Tree","background_difficulty":"6","image_path":"images/Tree/With_Backgrounds/difficulty6_image7.png","trial_type":"image-button-response","trial_index":25,"time_elapsed":65008,"internal_node_id":"0.0-2.0-0.23"},{"rt":2508,"stimulus":"images/Other/With_Backgrounds/difficulty2_image1.png","response":7,"category":"Other","background_difficulty":"2","image_path":"images/Other/With_Backgrounds/difficulty2_image1.png","trial_type":"image-button-response","trial_index":26,"time_elapsed":67520,"internal_node_id":"0.0-2.0-0.24"},{"rt":1660,"stimulus":"images/Cat/With_Backgrounds/difficulty5_image8.png","response":3,"category":"Cat","background_difficulty":"5","image_path":"images/Cat/With_Backgrounds/difficulty5_image8.png","trial_type":"image-button-response","trial_index":27,"time_elapsed":69185,"internal_node_id":"0.0-2.0-0.25"},{"rt":1077,"stimulus":"images/Cat/With_Backgrounds/difficulty8_image3.png","response":3,"category":"Cat","background_difficulty":"8","image_path":"images/Cat/With_Backgrounds/difficulty8_image3.png","trial_type":"image-button-response","trial_index":28,"time_elapsed":70267,"internal_node_id":"0.0-2.0-0.26"},{"rt":1377,"stimulus":"images/Other/With_Backgrounds/difficulty4_image6.png","response":7,"category":"Other","background_difficulty":"4","image_path":"images/Other/With_Backgrounds/difficulty4_image6.png","trial_type":"image-button-response","trial_index":29,"time_elapsed":71650,"internal_node_id":"0.0-2.0-0.27"},{"rt":1957,"stimulus":"images/Car/With_Backgrounds/difficulty6_image8.png","response":2,"category":"Car","background_difficulty":"6","image_path":"images/Car/With_Backgrounds/difficulty6_image8.png","trial_type":"image-button-response","trial_index":30,"time_elapsed":73612,"internal_node_id":"0.0-2.0-0.28"},{"rt":1287,"stimulus":"images/Broccoli/With_Backgrounds/difficulty4_image8.png","response":1,"category":"Broccoli","background_difficulty":"4","image_path":"images/Broccoli/With_Backgrounds/difficulty4_image8.png","trial_type":"image-button-response","trial_index":31,"time_elapsed":74905,"internal_node_id":"0.0-2.0-0.29"},{"rt":979,"stimulus":"images/Broccoli/With_Backgrounds/difficulty0_image6.png","response":1,"category":"Broccoli","background_difficulty":"0","image_path":"images/Broccoli/With_Backgrounds/difficulty0_image6.png","trial_type":"image-button-response","trial_index":32,"time_elapsed":75890,"internal_node_id":"0.0-2.0-0.30"},{"rt":2338,"stimulus":"images/Other/With_Backgrounds/difficulty6_image2.png","response":7,"category":"Other","background_difficulty":"6","image_path":"images/Other/With_Backgrounds/difficulty6_image2.png","trial_type":"image-button-response","trial_index":33,"time_elapsed":78234,"internal_node_id":"0.0-2.0-0.31"},{"rt":2419,"stimulus":"images/Tree/With_Backgrounds/difficulty8_image4.png","response":6,"category":"Tree","background_difficulty":"8","image_path":"images/Tree/With_Backgrounds/difficulty8_image4.png","trial_type":"image-button-response","trial_index":34,"time_elapsed":80657,"internal_node_id":"0.0-2.0-0.32"},{"rt":1942,"stimulus":"images/Car/With_Backgrounds/difficulty2_image9.png","response":2,"category":"Car","background_difficulty":"2","image_path":"images/Car/With_Backgrounds/difficulty2_image9.png","trial_type":"image-button-response","trial_index":35,"time_elapsed":82605,"internal_node_id":"0.0-2.0-0.33"},{"rt":1601,"stimulus":"images/Dog/With_Backgrounds/difficulty4_image7.png","response":4,"category":"Dog","background_difficulty":"4","image_path":"images/Dog/With_Backgrounds/difficulty4_image7.png","trial_type":"image-button-response","trial_index":36,"time_elapsed":84212,"internal_node_id":"0.0-2.0-0.34"},{"rt":1604,"stimulus":"images/Boat/With_Backgrounds/difficulty1_image3.png","response":0,"category":"Boat","background_difficulty":"1","image_path":"images/Boat/With_Backgrounds/difficulty1_image3.png","trial_type":"image-button-response","trial_index":37,"time_elapsed":85821,"internal_node_id":"0.0-2.0-0.35"},{"rt":1578,"stimulus":"images/Human/With_Backgrounds/difficulty0_image2.png","response":5,"category":"Human","background_difficulty":"0","image_path":"images/Human/With_Backgrounds/difficulty0_image2.png","trial_type":"image-button-response","trial_index":38,"time_elapsed":87403,"internal_node_id":"0.0-2.0-0.36"},{"rt":1854,"stimulus":"images/Car/With_Backgrounds/difficulty3_image5.png","response":2,"category":"Car","background_difficulty":"3","image_path":"images/Car/With_Backgrounds/difficulty3_image5.png","trial_type":"image-button-response","trial_index":39,"time_elapsed":89262,"internal_node_id":"0.0-2.0-0.37"},{"rt":1070,"stimulus":"images/Car/With_Backgrounds/difficulty4_image6.png","response":2,"category":"Car","background_difficulty":"4","image_path":"images/Car/With_Backgrounds/difficulty4_image6.png","trial_type":"image-button-response","trial_index":40,"time_elapsed":90336,"internal_node_id":"0.0-2.0-0.38"},{"rt":1199,"stimulus":"images/Broccoli/With_Backgrounds/difficulty2_image3.png","response":1,"category":"Broccoli","background_difficulty":"2","image_path":"images/Broccoli/With_Backgrounds/difficulty2_image3.png","trial_type":"image-button-response","trial_index":41,"time_elapsed":91539,"internal_node_id":"0.0-2.0-0.39"},{"rt":1491,"stimulus":"images/Car/With_Backgrounds/difficulty5_image0.png","response":2,"category":"Car","background_difficulty":"5","image_path":"images/Car/With_Backgrounds/difficulty5_image0.png","trial_type":"image-button-response","trial_index":42,"time_elapsed":93034,"internal_node_id":"0.0-2.0-0.40"},{"rt":1854,"stimulus":"images/Other/With_Backgrounds/difficulty5_image9.png","response":7,"category":"Other","background_difficulty":"5","image_path":"images/Other/With_Backgrounds/difficulty5_image9.png","trial_type":"image-button-response","trial_index":43,"time_elapsed":94892,"internal_node_id":"0.0-2.0-0.41"},{"rt":2540,"stimulus":"images/Broccoli/With_Backgrounds/difficulty3_image0.png","response":1,"category":"Broccoli","background_difficulty":"3","image_path":"images/Broccoli/With_Backgrounds/difficulty3_image0.png","trial_type":"image-button-response","trial_index":44,"time_elapsed":97437,"internal_node_id":"0.0-2.0-0.42"},{"rt":1352,"stimulus":"images/Human/With_Backgrounds/difficulty4_image1.png","response":5,"category":"Human","background_difficulty":"4","image_path":"images/Human/With_Backgrounds/difficulty4_image1.png","trial_type":"image-button-response","trial_index":45,"time_elapsed":98794,"internal_node_id":"0.0-2.0-0.43"},{"rt":1498,"stimulus":"images/Broccoli/With_Backgrounds/difficulty5_image1.png","response":1,"category":"Broccoli","background_difficulty":"5","image_path":"images/Broccoli/With_Backgrounds/difficulty5_image1.png","trial_type":"image-button-response","trial_index":46,"time_elapsed":100297,"internal_node_id":"0.0-2.0-0.44"},{"rt":1320,"stimulus":"images/Boat/With_Backgrounds/difficulty8_image7.png","response":0,"category":"Boat","background_difficulty":"8","image_path":"images/Boat/With_Backgrounds/difficulty8_image7.png","trial_type":"image-button-response","trial_index":47,"time_elapsed":101622,"internal_node_id":"0.0-2.0-0.45"},{"rt":1726,"stimulus":"images/Dog/With_Backgrounds/difficulty5_image3.png","response":4,"category":"Dog","background_difficulty":"5","image_path":"images/Dog/With_Backgrounds/difficulty5_image3.png","trial_type":"image-button-response","trial_index":48,"time_elapsed":103351,"internal_node_id":"0.0-2.0-0.46"},{"rt":1279,"stimulus":"images/Dog/With_Backgrounds/difficulty2_image5.png","response":4,"category":"Dog","background_difficulty":"2","image_path":"images/Dog/With_Backgrounds/difficulty2_image5.png","trial_type":"image-button-response","trial_index":49,"time_elapsed":104635,"internal_node_id":"0.0-2.0-0.47"},{"rt":1693,"stimulus":"images/Tree/With_Backgrounds/difficulty4_image0.png","response":6,"category":"Tree","background_difficulty":"4","image_path":"images/Tree/With_Backgrounds/difficulty4_image0.png","trial_type":"image-button-response","trial_index":50,"time_elapsed":106333,"internal_node_id":"0.0-2.0-0.48"},{"rt":1069,"stimulus":"images/Human/With_Backgrounds/difficulty2_image0.png","response":5,"category":"Human","background_difficulty":"2","image_path":"images/Human/With_Backgrounds/difficulty2_image0.png","trial_type":"image-button-response","trial_index":51,"time_elapsed":107406,"internal_node_id":"0.0-2.0-0.49"},{"rt":981,"stimulus":"images/Human/With_Backgrounds/difficulty7_image6.png","response":5,"category":"Human","background_difficulty":"7","image_path":"images/Human/With_Backgrounds/difficulty7_image6.png","trial_type":"image-button-response","trial_index":52,"time_elapsed":108393,"internal_node_id":"0.0-2.0-0.50"},{"rt":1490,"stimulus":"images/Boat/With_Backgrounds/difficulty6_image0.png","response":0,"category":"Boat","background_difficulty":"6","image_path":"images/Boat/With_Backgrounds/difficulty6_image0.png","trial_type":"image-button-response","trial_index":53,"time_elapsed":109887,"internal_node_id":"0.0-2.0-0.51"},{"rt":2064,"stimulus":"images/Cat/With_Backgrounds/difficulty1_image1.png","response":3,"category":"Cat","background_difficulty":"1","image_path":"images/Cat/With_Backgrounds/difficulty1_image1.png","trial_type":"image-button-response","trial_index":54,"time_elapsed":111954,"internal_node_id":"0.0-2.0-0.52"},{"rt":1402,"stimulus":"images/Other/With_Backgrounds/difficulty3_image7.png","response":7,"category":"Other","background_difficulty":"3","image_path":"images/Other/With_Backgrounds/difficulty3_image7.png","trial_type":"image-button-response","trial_index":55,"time_elapsed":113360,"internal_node_id":"0.0-2.0-0.53"},{"rt":1394,"stimulus":"images/Car/With_Backgrounds/difficulty0_image4.png","response":2,"category":"Car","background_difficulty":"0","image_path":"images/Car/With_Backgrounds/difficulty0_image4.png","trial_type":"image-button-response","trial_index":56,"time_elapsed":114758,"internal_node_id":"0.0-2.0-0.54"},{"rt":1647,"stimulus":"images/Tree/With_Backgrounds/difficulty2_image1.png","response":6,"category":"Tree","background_difficulty":"2","image_path":"images/Tree/With_Backgrounds/difficulty2_image1.png","trial_type":"image-button-response","trial_index":57,"time_elapsed":116409,"internal_node_id":"0.0-2.0-0.55"},{"rt":1105,"stimulus":"images/Tree/With_Backgrounds/difficulty5_image5.png","response":6,"category":"Tree","background_difficulty":"5","image_path":"images/Tree/With_Backgrounds/difficulty5_image5.png","trial_type":"image-button-response","trial_index":58,"time_elapsed":117521,"internal_node_id":"0.0-2.0-0.56"},{"rt":2970,"stimulus":"images/Cat/With_Backgrounds/difficulty7_image7.png","response":3,"category":"Cat","background_difficulty":"7","image_path":"images/Cat/With_Backgrounds/difficulty7_image7.png","trial_type":"image-button-response","trial_index":59,"time_elapsed":120494,"internal_node_id":"0.0-2.0-0.57"},{"rt":1336,"stimulus":"images/Tree/With_Backgrounds/difficulty0_image2.png","response":6,"category":"Tree","background_difficulty":"0","image_path":"images/Tree/With_Backgrounds/difficulty0_image2.png","trial_type":"image-button-response","trial_index":60,"time_elapsed":121835,"internal_node_id":"0.0-2.0-0.58"},{"rt":1457,"stimulus":"images/Human/With_Backgrounds/difficulty1_image7.png","response":5,"category":"Human","background_difficulty":"1","image_path":"images/Human/With_Backgrounds/difficulty1_image7.png","trial_type":"image-button-response","trial_index":61,"time_elapsed":123297,"internal_node_id":"0.0-2.0-0.59"},{"rt":1344,"stimulus":"images/Broccoli/With_Backgrounds/difficulty1_image4.png","response":1,"category":"Broccoli","background_difficulty":"1","image_path":"images/Broccoli/With_Backgrounds/difficulty1_image4.png","trial_type":"image-button-response","trial_index":62,"time_elapsed":124646,"internal_node_id":"0.0-2.0-0.60"},{"rt":1819,"stimulus":"images/Human/With_Backgrounds/difficulty6_image5.png","response":5,"category":"Human","background_difficulty":"6","image_path":"images/Human/With_Backgrounds/difficulty6_image5.png","trial_type":"image-button-response","trial_index":63,"time_elapsed":126470,"internal_node_id":"0.0-2.0-0.61"},{"rt":1979,"stimulus":"images/Cat/With_Backgrounds/difficulty3_image6.png","response":3,"category":"Cat","background_difficulty":"3","image_path":"images/Cat/With_Backgrounds/difficulty3_image6.png","trial_type":"image-button-response","trial_index":64,"time_elapsed":128452,"internal_node_id":"0.0-2.0-0.62"},{"rt":1490,"stimulus":"images/Tree/With_Backgrounds/difficulty7_image9.png","response":6,"category":"Tree","background_difficulty":"7","image_path":"images/Tree/With_Backgrounds/difficulty7_image9.png","trial_type":"image-button-response","trial_index":65,"time_elapsed":129946,"internal_node_id":"0.0-2.0-0.63"},{"rt":1247,"stimulus":"images/Other/With_Backgrounds/difficulty0_image3.png","response":7,"category":"Other","background_difficulty":"0","image_path":"images/Other/With_Backgrounds/difficulty0_image3.png","trial_type":"image-button-response","trial_index":66,"time_elapsed":131198,"internal_node_id":"0.0-2.0-0.64"},{"rt":1370,"stimulus":"images/Boat/With_Backgrounds/difficulty3_image6.png","response":0,"category":"Boat","background_difficulty":"3","image_path":"images/Boat/With_Backgrounds/difficulty3_image6.png","trial_type":"image-button-response","trial_index":67,"time_elapsed":132571,"internal_node_id":"0.0-2.0-0.65"},{"rt":780,"stimulus":"images/Boat/With_Backgrounds/difficulty0_image8.png","response":0,"category":"Boat","background_difficulty":"0","image_path":"images/Boat/With_Backgrounds/difficulty0_image8.png","trial_type":"image-button-response","trial_index":68,"time_elapsed":133354,"internal_node_id":"0.0-2.0-0.66"},{"rt":1386,"stimulus":"images/Other/With_Backgrounds/difficulty7_image8.png","response":7,"category":"Other","background_difficulty":"7","image_path":"images/Other/With_Backgrounds/difficulty7_image8.png","trial_type":"image-button-response","trial_index":69,"time_elapsed":134744,"internal_node_id":"0.0-2.0-0.67"},{"rt":1656,"stimulus":"images/Boat/With_Backgrounds/difficulty7_image2.png","response":0,"category":"Boat","background_difficulty":"7","image_path":"images/Boat/With_Backgrounds/difficulty7_image2.png","trial_type":"image-button-response","trial_index":70,"time_elapsed":136404,"internal_node_id":"0.0-2.0-0.68"},{"rt":1741,"stimulus":"images/Tree/With_Backgrounds/difficulty1_image8.png","response":6,"category":"Tree","background_difficulty":"1","image_path":"images/Tree/With_Backgrounds/difficulty1_image8.png","trial_type":"image-button-response","trial_index":71,"time_elapsed":138155,"internal_node_id":"0.0-2.0-0.69"},{"rt":1588,"stimulus":"images/Cat/With_Backgrounds/difficulty6_image4.png","response":3,"category":"Cat","background_difficulty":"6","image_path":"images/Cat/With_Backgrounds/difficulty6_image4.png","trial_type":"image-button-response","trial_index":72,"time_elapsed":139746,"internal_node_id":"0.0-2.0-0.70"},{"rt":1350,"stimulus":"images/Human/With_Backgrounds/difficulty5_image4.png","response":5,"category":"Human","background_difficulty":"5","image_path":"images/Human/With_Backgrounds/difficulty5_image4.png","trial_type":"image-button-response","trial_index":73,"time_elapsed":141103,"internal_node_id":"0.0-2.0-0.71"},{"rt":2017,"stimulus":["<h2>Press the button below to end experiment.</h2><p>Thank you for participating!</p>"],"response":0,"trial_type":"html-button-response","trial_index":74,"time_elapsed":143122,"internal_node_id":"0.0-3.0"}]