[{"success":true,"timeout":false,"failed_images":[],"failed_audio":[],"failed_video":[],"trial_type":"preload","trial_index":0,"time_elapsed":934,"internal_node_id":"0.0-0.0"},{"rt":5890,"stimulus":["<h2>Noisy background image classification</h2><p>In this experiment you will briefly see images on top of colored squares of various sizes.</p><p>Your task is to report what each image is, selecting \"None of the Above\" if none of the given options are correct.</p> <p>The possible options are <strong>Boat</strong>, <strong>Broccoli</strong>, <strong>Car</strong>, <strong>Cat</strong>, <strong>Dog</strong>, <strong>Human</strong>, <strong>Tree</strong>, and <strong>None of the Above</strong>"],"response":0,"trial_type":"html-button-response","trial_index":1,"time_elapsed":6832,"internal_node_id":"0.0-1.0"},{"rt":2746,"stimulus":"images/Boat/With_Backgrounds/difficulty3_image2.png","response":0,"category":"Boat","background_difficulty":"3","image_path":"images/Boat/With_Backgrounds/difficulty3_image2.png","trial_type":"image-button-response","trial_index":2,"time_elapsed":9589,"internal_node_id":"0.0-2.0-0.0"},{"rt":1720,"stimulus":"images/Cat/With_Backgrounds/difficulty5_image2.png","response":3,"category":"Cat","background_difficulty":"5","image_path":"images/Cat/With_Backgrounds/difficulty5_image2.png","trial_type":"image-button-response","trial_index":3,"time_elapsed":11321,"internal_node_id":"0.0-2.0-0.1"},{"rt":1489,"stimulus":"images/Dog/With_Backgrounds/difficulty1_image0.png","response":4,"category":"Dog","background_difficulty":"1","image_path":"images/Dog/With_Backgrounds/difficulty1_image0.png","trial_type":"image-button-response","trial_index":4,"time_elapsed":12820,"internal_node_id":"0.0-2.0-0.2"},{"rt":2106,"stimulus":"images/Car/With_Backgrounds/difficulty5_image7.png","response":2,"category":"Car","background_difficulty":"5","image_path":"images/Car/With_Backgrounds/difficulty5_image7.png","trial_type":"image-button-response","trial_index":5,"time_elapsed":14935,"internal_node_id":"0.0-2.0-0.3"},{"rt":1521,"stimulus":"images/Dog/With_Backgrounds/difficulty7_image2.png","response":4,"category":"Dog","background_difficulty":"7","image_path":"images/Dog/With_Backgrounds/difficulty7_image2.png","trial_type":"image-button-response","trial_index":6,"time_elapsed":16467,"internal_node_id":"0.0-2.0-0.4"},{"rt":1540,"stimulus":"images/Boat/With_Backgrounds/difficulty2_image3.png","response":0,"category":"Boat","background_difficulty":"2","image_path":"images/Boat/With_Backgrounds/difficulty2_image3.png","trial_type":"image-button-response","trial_index":7,"time_elapsed":18016,"internal_node_id":"0.0-2.0-0.5"},{"rt":1805,"stimulus":"images/Tree/With_Backgrounds/difficulty2_image5.png","response":6,"category":"Tree","background_difficulty":"2","image_path":"images/Tree/With_Backgrounds/difficulty2_image5.png","trial_type":"image-button-response","trial_index":8,"time_elapsed":19832,"internal_node_id":"0.0-2.0-0.6"},{"rt":1937,"stimulus":"images/Human/With_Backgrounds/difficulty3_image9.png","response":5,"category":"Human","background_difficulty":"3","image_path":"images/Human/With_Backgrounds/difficulty3_image9.png","trial_type":"image-button-response","trial_index":9,"time_elapsed":21781,"internal_node_id":"0.0-2.0-0.7"},{"rt":1621,"stimulus":"images/Car/With_Backgrounds/difficulty1_image5.png","response":2,"category":"Car","background_difficulty":"1","image_path":"images/Car/With_Backgrounds/difficulty1_image5.png","trial_type":"image-button-response","trial_index":10,"time_elapsed":23413,"internal_node_id":"0.0-2.0-0.8"},{"rt":1456,"stimulus":"images/Broccoli/With_Backgrounds/difficulty2_image0.png","response":1,"category":"Broccoli","background_difficulty":"2","image_path":"images/Broccoli/With_Backgrounds/difficulty2_image0.png","trial_type":"image-button-response","trial_index":11,"time_elapsed":24878,"internal_node_id":"0.0-2.0-0.9"},{"rt":1407,"stimulus":"images/Boat/With_Backgrounds/difficulty6_image8.png","response":0,"category":"Boat","background_difficulty":"6","image_path":"images/Boat/With_Backgrounds/difficulty6_image8.png","trial_type":"image-button-response","trial_index":12,"time_elapsed":26294,"internal_node_id":"0.0-2.0-0.10"},{"rt":1654,"stimulus":"images/Human/With_Backgrounds/difficulty7_image1.png","response":5,"category":"Human","background_difficulty":"7","image_path":"images/Human/With_Backgrounds/difficulty7_image1.png","trial_type":"image-button-response","trial_index":13,"time_elapsed":27960,"internal_node_id":"0.0-2.0-0.11"},{"rt":1520,"stimulus":"images/Dog/With_Backgrounds/difficulty8_image3.png","response":4,"category":"Dog","background_difficulty":"8","image_path":"images/Dog/With_Backgrounds/difficulty8_image3.png","trial_type":"image-button-response","trial_index":14,"time_elapsed":29493,"internal_node_id":"0.0-2.0-0.12"},{"rt":1839,"stimulus":"images/Tree/With_Backgrounds/difficulty4_image2.png","response":6,"category":"Tree","background_difficulty":"4","image_path":"images/Tree/With_Backgrounds/difficulty4_image2.png","trial_type":"image-button-response","trial_index":15,"time_elapsed":31341,"internal_node_id":"0.0-2.0-0.13"},{"rt":1522,"stimulus":"images/Car/With_Backgrounds/difficulty4_image3.png","response":2,"category":"Car","background_difficulty":"4","image_path":"images/Car/With_Backgrounds/difficulty4_image3.png","trial_type":"image-button-response","trial_index":16,"time_elapsed":32874,"internal_node_id":"0.0-2.0-0.14"},{"rt":1421,"stimulus":"images/Boat/With_Backgrounds/difficulty7_image9.png","response":0,"category":"Boat","background_difficulty":"7","image_path":"images/Boat/With_Backgrounds/difficulty7_image9.png","trial_type":"image-button-response","trial_index":17,"time_elapsed":34306,"internal_node_id":"0.0-2.0-0.15"},{"rt":1355,"stimulus":"images/Human/With_Backgrounds/difficulty4_image3.png","response":5,"category":"Human","background_difficulty":"4","image_path":"images/Human/With_Backgrounds/difficulty4_image3.png","trial_type":"image-button-response","trial_index":18,"time_elapsed":35672,"internal_node_id":"0.0-2.0-0.16"},{"rt":1857,"stimulus":"images/Boat/With_Backgrounds/difficulty4_image7.png","response":7,"category":"Boat","background_difficulty":"4","image_path":"images/Boat/With_Backgrounds/difficulty4_image7.png","trial_type":"image-button-response","trial_index":19,"time_elapsed":37537,"internal_node_id":"0.0-2.0-0.17"},{"rt":1656,"stimulus":"images/Cat/With_Backgrounds/difficulty0_image5.png","response":3,"category":"Cat","background_difficulty":"0","image_path":"images/Cat/With_Backgrounds/difficulty0_image5.png","trial_type":"image-button-response","trial_index":20,"time_elapsed":39203,"internal_node_id":"0.0-2.0-0.18"},{"rt":1422,"stimulus":"images/Car/With_Backgrounds/difficulty2_image2.png","response":2,"category":"Car","background_difficulty":"2","image_path":"images/Car/With_Backgrounds/difficulty2_image2.png","trial_type":"image-button-response","trial_index":21,"time_elapsed":40635,"internal_node_id":"0.0-2.0-0.19"},{"rt":1524,"stimulus":"images/Tree/With_Backgrounds/difficulty0_image1.png","response":6,"category":"Tree","background_difficulty":"0","image_path":"images/Tree/With_Backgrounds/difficulty0_image1.png","trial_type":"image-button-response","trial_index":22,"time_elapsed":42167,"internal_node_id":"0.0-2.0-0.20"},{"rt":1438,"stimulus":"images/Cat/With_Backgrounds/difficulty7_image1.png","response":3,"category":"Cat","background_difficulty":"7","image_path":"images/Cat/With_Backgrounds/difficulty7_image1.png","trial_type":"image-button-response","trial_index":23,"time_elapsed":43616,"internal_node_id":"0.0-2.0-0.21"},{"rt":1473,"stimulus":"images/Tree/With_Backgrounds/difficulty3_image4.png","response":6,"category":"Tree","background_difficulty":"3","image_path":"images/Tree/With_Backgrounds/difficulty3_image4.png","trial_type":"image-button-response","trial_index":24,"time_elapsed":45099,"internal_node_id":"0.0-2.0-0.22"},{"rt":1706,"stimulus":"images/Cat/With_Backgrounds/difficulty1_image8.png","response":3,"category":"Cat","background_difficulty":"1","image_path":"images/Cat/With_Backgrounds/difficulty1_image8.png","trial_type":"image-button-response","trial_index":25,"time_elapsed":46815,"internal_node_id":"0.0-2.0-0.23"},{"rt":1655,"stimulus":"images/Other/With_Backgrounds/difficulty4_image6.png","response":7,"category":"Other","background_difficulty":"4","image_path":"images/Other/With_Backgrounds/difficulty4_image6.png","trial_type":"image-button-response","trial_index":26,"time_elapsed":48480,"internal_node_id":"0.0-2.0-0.24"},{"rt":2671,"stimulus":"images/Tree/With_Backgrounds/difficulty1_image0.png","response":6,"category":"Tree","background_difficulty":"1","image_path":"images/Tree/With_Backgrounds/difficulty1_image0.png","trial_type":"image-button-response","trial_index":27,"time_elapsed":51162,"internal_node_id":"0.0-2.0-0.25"},{"rt":1640,"stimulus":"images/Other/With_Backgrounds/difficulty2_image2.png","response":7,"category":"Other","background_difficulty":"2","image_path":"images/Other/With_Backgrounds/difficulty2_image2.png","trial_type":"image-button-response","trial_index":28,"time_elapsed":52810,"internal_node_id":"0.0-2.0-0.26"},{"rt":1588,"stimulus":"images/Other/With_Backgrounds/difficulty0_image5.png","response":7,"category":"Other","background_difficulty":"0","image_path":"images/Other/With_Backgrounds/difficulty0_image5.png","trial_type":"image-button-response","trial_index":29,"time_elapsed":54408,"internal_node_id":"0.0-2.0-0.27"},{"rt":1440,"stimulus":"images/Tree/With_Backgrounds/difficulty6_image3.png","response":6,"category":"Tree","background_difficulty":"6","image_path":"images/Tree/With_Backgrounds/difficulty6_image3.png","trial_type":"image-button-response","trial_index":30,"time_elapsed":55858,"internal_node_id":"0.0-2.0-0.28"},{"rt":1421,"stimulus":"images/Other/With_Backgrounds/difficulty1_image4.png","response":7,"category":"Other","background_difficulty":"1","image_path":"images/Other/With_Backgrounds/difficulty1_image4.png","trial_type":"image-button-response","trial_index":31,"time_elapsed":57291,"internal_node_id":"0.0-2.0-0.29"},{"rt":1589,"stimulus":"images/Tree/With_Backgrounds/difficulty5_image6.png","response":6,"category":"Tree","background_difficulty":"5","image_path":"images/Tree/With_Backgrounds/difficulty5_image6.png","trial_type":"image-button-response","trial_index":32,"time_elapsed":58890,"internal_node_id":"0.0-2.0-0.30"},{"rt":1403,"stimulus":"images/Boat/With_Backgrounds/difficulty8_image5.png","response":0,"category":"Boat","background_difficulty":"8","image_path":"images/Boat/With_Backgrounds/difficulty8_image5.png","trial_type":"image-button-response","trial_index":33,"time_elapsed":60306,"internal_node_id":"0.0-2.0-0.31"},{"rt":1587,"stimulus":"images/Dog/With_Backgrounds/difficulty6_image9.png","response":4,"category":"Dog","background_difficulty":"6","image_path":"images/Dog/With_Backgrounds/difficulty6_image9.png","trial_type":"image-button-response","trial_index":34,"time_elapsed":61905,"internal_node_id":"0.0-2.0-0.32"},{"rt":1523,"stimulus":"images/Other/With_Backgrounds/difficulty5_image0.png","response":7,"category":"Other","background_difficulty":"5","image_path":"images/Other/With_Backgrounds/difficulty5_image0.png","trial_type":"image-button-response","trial_index":35,"time_elapsed":63437,"internal_node_id":"0.0-2.0-0.33"},{"rt":1522,"stimulus":"images/Car/With_Backgrounds/difficulty7_image0.png","response":2,"category":"Car","background_difficulty":"7","image_path":"images/Car/With_Backgrounds/difficulty7_image0.png","trial_type":"image-button-response","trial_index":36,"time_elapsed":64970,"internal_node_id":"0.0-2.0-0.34"},{"rt":1622,"stimulus":"images/Cat/With_Backgrounds/difficulty6_image0.png","response":3,"category":"Cat","background_difficulty":"6","image_path":"images/Cat/With_Backgrounds/difficulty6_image0.png","trial_type":"image-button-response","trial_index":37,"time_elapsed":66602,"internal_node_id":"0.0-2.0-0.35"},{"rt":1407,"stimulus":"images/Boat/With_Backgrounds/difficulty1_image0.png","response":0,"category":"Boat","background_difficulty":"1","image_path":"images/Boat/With_Backgrounds/difficulty1_image0.png","trial_type":"image-button-response","trial_index":38,"time_elapsed":68018,"internal_node_id":"0.0-2.0-0.36"},{"rt":1338,"stimulus":"images/Human/With_Backgrounds/difficulty1_image8.png","response":5,"category":"Human","background_difficulty":"1","image_path":"images/Human/With_Backgrounds/difficulty1_image8.png","trial_type":"image-button-response","trial_index":39,"time_elapsed":69367,"internal_node_id":"0.0-2.0-0.37"},{"rt":1406,"stimulus":"images/Car/With_Backgrounds/difficulty0_image8.png","response":2,"category":"Car","background_difficulty":"0","image_path":"images/Car/With_Backgrounds/difficulty0_image8.png","trial_type":"image-button-response","trial_index":40,"time_elapsed":70783,"internal_node_id":"0.0-2.0-0.38"},{"rt":1540,"stimulus":"images/Car/With_Backgrounds/difficulty3_image1.png","response":2,"category":"Car","background_difficulty":"3","image_path":"images/Car/With_Backgrounds/difficulty3_image1.png","trial_type":"image-button-response","trial_index":41,"time_elapsed":72332,"internal_node_id":"0.0-2.0-0.39"},{"rt":1636,"stimulus":"images/Other/With_Backgrounds/difficulty7_image1.png","response":7,"category":"Other","background_difficulty":"7","image_path":"images/Other/With_Backgrounds/difficulty7_image1.png","trial_type":"image-button-response","trial_index":42,"time_elapsed":73981,"internal_node_id":"0.0-2.0-0.40"},{"rt":1337,"stimulus":"images/Human/With_Backgrounds/difficulty2_image7.png","response":5,"category":"Human","background_difficulty":"2","image_path":"images/Human/With_Backgrounds/difficulty2_image7.png","trial_type":"image-button-response","trial_index":43,"time_elapsed":75330,"internal_node_id":"0.0-2.0-0.41"},{"rt":1352,"stimulus":"images/Other/With_Backgrounds/difficulty8_image7.png","response":7,"category":"Other","background_difficulty":"8","image_path":"images/Other/With_Backgrounds/difficulty8_image7.png","trial_type":"image-button-response","trial_index":44,"time_elapsed":76695,"internal_node_id":"0.0-2.0-0.42"},{"rt":1539,"stimulus":"images/Dog/With_Backgrounds/difficulty4_image7.png","response":4,"category":"Dog","background_difficulty":"4","image_path":"images/Dog/With_Backgrounds/difficulty4_image7.png","trial_type":"image-button-response","trial_index":45,"time_elapsed":78244,"internal_node_id":"0.0-2.0-0.43"},{"rt":1488,"stimulus":"images/Other/With_Backgrounds/difficulty3_image3.png","response":7,"category":"Other","background_difficulty":"3","image_path":"images/Other/With_Backgrounds/difficulty3_image3.png","trial_type":"image-button-response","trial_index":46,"time_elapsed":79743,"internal_node_id":"0.0-2.0-0.44"},{"rt":1607,"stimulus":"images/Dog/With_Backgrounds/difficulty0_image4.png","response":4,"category":"Dog","background_difficulty":"0","image_path":"images/Dog/With_Backgrounds/difficulty0_image4.png","trial_type":"image-button-response","trial_index":47,"time_elapsed":81359,"internal_node_id":"0.0-2.0-0.45"},{"rt":1455,"stimulus":"images/Cat/With_Backgrounds/difficulty2_image9.png","response":3,"category":"Cat","background_difficulty":"2","image_path":"images/Cat/With_Backgrounds/difficulty2_image9.png","trial_type":"image-button-response","trial_index":48,"time_elapsed":82824,"internal_node_id":"0.0-2.0-0.46"},{"rt":1506,"stimulus":"images/Cat/With_Backgrounds/difficulty4_image3.png","response":3,"category":"Cat","background_difficulty":"4","image_path":"images/Cat/With_Backgrounds/difficulty4_image3.png","trial_type":"image-button-response","trial_index":49,"time_elapsed":84340,"internal_node_id":"0.0-2.0-0.47"},{"rt":1472,"stimulus":"images/Tree/With_Backgrounds/difficulty7_image9.png","response":6,"category":"Tree","background_difficulty":"7","image_path":"images/Tree/With_Backgrounds/difficulty7_image9.png","trial_type":"image-button-response","trial_index":50,"time_elapsed":85823,"internal_node_id":"0.0-2.0-0.48"},{"rt":1406,"stimulus":"images/Other/With_Backgrounds/difficulty6_image9.png","response":7,"category":"Other","background_difficulty":"6","image_path":"images/Other/With_Backgrounds/difficulty6_image9.png","trial_type":"image-button-response","trial_index":51,"time_elapsed":87238,"internal_node_id":"0.0-2.0-0.49"},{"rt":1323,"stimulus":"images/Human/With_Backgrounds/difficulty0_image2.png","response":5,"category":"Human","background_difficulty":"0","image_path":"images/Human/With_Backgrounds/difficulty0_image2.png","trial_type":"image-button-response","trial_index":52,"time_elapsed":88571,"internal_node_id":"0.0-2.0-0.50"},{"rt":1371,"stimulus":"images/Human/With_Backgrounds/difficulty6_image4.png","response":5,"category":"Human","background_difficulty":"6","image_path":"images/Human/With_Backgrounds/difficulty6_image4.png","trial_type":"image-button-response","trial_index":53,"time_elapsed":89953,"internal_node_id":"0.0-2.0-0.51"},{"rt":1440,"stimulus":"images/Dog/With_Backgrounds/difficulty3_image8.png","response":4,"category":"Dog","background_difficulty":"3","image_path":"images/Dog/With_Backgrounds/difficulty3_image8.png","trial_type":"image-button-response","trial_index":54,"time_elapsed":91403,"internal_node_id":"0.0-2.0-0.52"},{"rt":1390,"stimulus":"images/Boat/With_Backgrounds/difficulty0_image4.png","response":0,"category":"Boat","background_difficulty":"0","image_path":"images/Boat/With_Backgrounds/difficulty0_image4.png","trial_type":"image-button-response","trial_index":55,"time_elapsed":92802,"internal_node_id":"0.0-2.0-0.53"},{"rt":1339,"stimulus":"images/Broccoli/With_Backgrounds/difficulty1_image3.png","response":1,"category":"Broccoli","background_difficulty":"1","image_path":"images/Broccoli/With_Backgrounds/difficulty1_image3.png","trial_type":"image-button-response","trial_index":56,"time_elapsed":94151,"internal_node_id":"0.0-2.0-0.54"},{"rt":1455,"stimulus":"images/Broccoli/With_Backgrounds/difficulty5_image4.png","response":1,"category":"Broccoli","background_difficulty":"5","image_path":"images/Broccoli/With_Backgrounds/difficulty5_image4.png","trial_type":"image-button-response","trial_index":57,"time_elapsed":95617,"internal_node_id":"0.0-2.0-0.55"},{"rt":1323,"stimulus":"images/Human/With_Backgrounds/difficulty5_image0.png","response":5,"category":"Human","background_difficulty":"5","image_path":"images/Human/With_Backgrounds/difficulty5_image0.png","trial_type":"image-button-response","trial_index":58,"time_elapsed":96950,"internal_node_id":"0.0-2.0-0.56"},{"rt":1337,"stimulus":"images/Human/With_Backgrounds/difficulty8_image6.png","response":5,"category":"Human","background_difficulty":"8","image_path":"images/Human/With_Backgrounds/difficulty8_image6.png","trial_type":"image-button-response","trial_index":59,"time_elapsed":98299,"internal_node_id":"0.0-2.0-0.57"},{"rt":2487,"stimulus":"images/Tree/With_Backgrounds/difficulty8_image7.png","response":6,"category":"Tree","background_difficulty":"8","image_path":"images/Tree/With_Backgrounds/difficulty8_image7.png","trial_type":"image-button-response","trial_index":60,"time_elapsed":100797,"internal_node_id":"0.0-2.0-0.58"},{"rt":1488,"stimulus":"images/Cat/With_Backgrounds/difficulty8_image7.png","response":3,"category":"Cat","background_difficulty":"8","image_path":"images/Cat/With_Backgrounds/difficulty8_image7.png","trial_type":"image-button-response","trial_index":61,"time_elapsed":102297,"internal_node_id":"0.0-2.0-0.59"},{"rt":1488,"stimulus":"images/Car/With_Backgrounds/difficulty6_image4.png","response":2,"category":"Car","background_difficulty":"6","image_path":"images/Car/With_Backgrounds/difficulty6_image4.png","trial_type":"image-button-response","trial_index":62,"time_elapsed":103796,"internal_node_id":"0.0-2.0-0.60"},{"rt":1356,"stimulus":"images/Dog/With_Backgrounds/difficulty2_image5.png","response":4,"category":"Dog","background_difficulty":"2","image_path":"images/Dog/With_Backgrounds/difficulty2_image5.png","trial_type":"image-button-response","trial_index":63,"time_elapsed":105162,"internal_node_id":"0.0-2.0-0.61"},{"rt":1855,"stimulus":"images/Dog/With_Backgrounds/difficulty5_image1.png","response":4,"category":"Dog","background_difficulty":"5","image_path":"images/Dog/With_Backgrounds/difficulty5_image1.png","trial_type":"image-button-response","trial_index":64,"time_elapsed":107028,"internal_node_id":"0.0-2.0-0.62"},{"rt":2003,"stimulus":"images/Car/With_Backgrounds/difficulty8_image9.png","response":2,"category":"Car","background_difficulty":"8","image_path":"images/Car/With_Backgrounds/difficulty8_image9.png","trial_type":"image-button-response","trial_index":65,"time_elapsed":109043,"internal_node_id":"0.0-2.0-0.63"},{"rt":1473,"stimulus":"images/Broccoli/With_Backgrounds/difficulty3_image8.png","response":1,"category":"Broccoli","background_difficulty":"3","image_path":"images/Broccoli/With_Backgrounds/difficulty3_image8.png","trial_type":"image-button-response","trial_index":66,"time_elapsed":110526,"internal_node_id":"0.0-2.0-0.64"},{"rt":1440,"stimulus":"images/Cat/With_Backgrounds/difficulty3_image4.png","response":3,"category":"Cat","background_difficulty":"3","image_path":"images/Cat/With_Backgrounds/difficulty3_image4.png","trial_type":"image-button-response","trial_index":67,"time_elapsed":111975,"internal_node_id":"0.0-2.0-0.65"},{"rt":1370,"stimulus":"images/Broccoli/With_Backgrounds/difficulty0_image6.png","response":1,"category":"Broccoli","background_difficulty":"0","image_path":"images/Broccoli/With_Backgrounds/difficulty0_image6.png","trial_type":"image-button-response","trial_index":68,"time_elapsed":113358,"internal_node_id":"0.0-2.0-0.66"},{"rt":1272,"stimulus":"images/Boat/With_Backgrounds/difficulty5_image1.png","response":0,"category":"Boat","background_difficulty":"5","image_path":"images/Boat/With_Backgrounds/difficulty5_image1.png","trial_type":"image-button-response","trial_index":69,"time_elapsed":114640,"internal_node_id":"0.0-2.0-0.67"},{"rt":1304,"stimulus":"images/Broccoli/With_Backgrounds/difficulty8_image7.png","response":1,"category":"Broccoli","background_difficulty":"8","image_path":"images/Broccoli/With_Backgrounds/difficulty8_image7.png","trial_type":"image-button-response","trial_index":70,"time_elapsed":115958,"internal_node_id":"0.0-2.0-0.68"},{"rt":1501,"stimulus":"images/Broccoli/With_Backgrounds/difficulty7_image1.png","response":1,"category":"Broccoli","background_difficulty":"7","image_path":"images/Broccoli/With_Backgrounds/difficulty7_image1.png","trial_type":"image-button-response","trial_index":71,"time_elapsed":117472,"internal_node_id":"0.0-2.0-0.69"},{"rt":1303,"stimulus":"images/Broccoli/With_Backgrounds/difficulty6_image2.png","response":1,"category":"Broccoli","background_difficulty":"6","image_path":"images/Broccoli/With_Backgrounds/difficulty6_image2.png","trial_type":"image-button-response","trial_index":72,"time_elapsed":118788,"internal_node_id":"0.0-2.0-0.70"},{"rt":1338,"stimulus":"images/Broccoli/With_Backgrounds/difficulty4_image9.png","response":1,"category":"Broccoli","background_difficulty":"4","image_path":"images/Broccoli/With_Backgrounds/difficulty4_image9.png","trial_type":"image-button-response","trial_index":73,"time_elapsed":120136,"internal_node_id":"0.0-2.0-0.71"},{"rt":1547,"stimulus":["<h2>Press the button below to end experiment.</h2><p>Thank you for participating!</p>"],"response":0,"trial_type":"html-button-response","trial_index":74,"time_elapsed":121686,"internal_node_id":"0.0-3.0"}]