[{"success":true,"timeout":false,"failed_images":[],"failed_audio":[],"failed_video":[],"trial_type":"preload","trial_index":0,"time_elapsed":1711,"internal_node_id":"0.0-0.0"},{"rt":8776,"stimulus":["<h2>Noisy background image classification</h2><p>In this experiment you will briefly see images on top of colored squares of various sizes.</p><p>Your task is to report what each image is, selecting \"None of the Above\" if none of the given options are correct.</p> <p>The possible options are <strong>Boat</strong>, <strong>Broccoli</strong>, <strong>Car</strong>, <strong>Cat</strong>, <strong>Dog</strong>, <strong>Human</strong>, <strong>Tree</strong>, and <strong>None of the Above</strong>"],"response":0,"trial_type":"html-button-response","trial_index":1,"time_elapsed":10488,"internal_node_id":"0.0-1.0"},{"rt":1367,"stimulus":"images/Broccoli/With_Backgrounds/difficulty2_image7.png","response":1,"category":"Broccoli","background_difficulty":"2","image_path":"images/Broccoli/With_Backgrounds/difficulty2_image7.png","trial_type":"image-button-response","trial_index":2,"time_elapsed":11856,"internal_node_id":"0.0-2.0-0.0"},{"rt":1279,"stimulus":"images/Dog/With_Backgrounds/difficulty7_image4.png","response":4,"category":"Dog","background_difficulty":"7","image_path":"images/Dog/With_Backgrounds/difficulty7_image4.png","trial_type":"image-button-response","trial_index":3,"time_elapsed":13136,"internal_node_id":"0.0-2.0-0.1"},{"rt":1572,"stimulus":"images/Car/With_Backgrounds/difficulty4_image4.png","response":2,"category":"Car","background_difficulty":"4","image_path":"images/Car/With_Backgrounds/difficulty4_image4.png","trial_type":"image-button-response","trial_index":4,"time_elapsed":14709,"internal_node_id":"0.0-2.0-0.2"},{"rt":1093,"stimulus":"images/Dog/With_Backgrounds/difficulty2_image7.png","response":4,"category":"Dog","background_difficulty":"2","image_path":"images/Dog/With_Backgrounds/difficulty2_image7.png","trial_type":"image-button-response","trial_index":5,"time_elapsed":15802,"internal_node_id":"0.0-2.0-0.3"},{"rt":2471,"stimulus":"images/Other/With_Backgrounds/difficulty7_image8.png","response":7,"category":"Other","background_difficulty":"7","image_path":"images/Other/With_Backgrounds/difficulty7_image8.png","trial_type":"image-button-response","trial_index":6,"time_elapsed":18274,"internal_node_id":"0.0-2.0-0.4"},{"rt":1576,"stimulus":"images/Human/With_Backgrounds/difficulty8_image4.png","response":5,"category":"Human","background_difficulty":"8","image_path":"images/Human/With_Backgrounds/difficulty8_image4.png","trial_type":"image-button-response","trial_index":7,"time_elapsed":19851,"internal_node_id":"0.0-2.0-0.5"},{"rt":1065,"stimulus":"images/Broccoli/With_Backgrounds/difficulty4_image1.png","response":1,"category":"Broccoli","background_difficulty":"4","image_path":"images/Broccoli/With_Backgrounds/difficulty4_image1.png","trial_type":"image-button-response","trial_index":8,"time_elapsed":20916,"internal_node_id":"0.0-2.0-0.6"},{"rt":916,"stimulus":"images/Broccoli/With_Backgrounds/difficulty6_image9.png","response":1,"category":"Broccoli","background_difficulty":"6","image_path":"images/Broccoli/With_Backgrounds/difficulty6_image9.png","trial_type":"image-button-response","trial_index":9,"time_elapsed":21833,"internal_node_id":"0.0-2.0-0.7"},{"rt":1485,"stimulus":"images/Car/With_Backgrounds/difficulty5_image2.png","response":2,"category":"Car","background_difficulty":"5","image_path":"images/Car/With_Backgrounds/difficulty5_image2.png","trial_type":"image-button-response","trial_index":10,"time_elapsed":23320,"internal_node_id":"0.0-2.0-0.8"},{"rt":1057,"stimulus":"images/Car/With_Backgrounds/difficulty0_image6.png","response":2,"category":"Car","background_difficulty":"0","image_path":"images/Car/With_Backgrounds/difficulty0_image6.png","trial_type":"image-button-response","trial_index":11,"time_elapsed":24378,"internal_node_id":"0.0-2.0-0.9"},{"rt":1884,"stimulus":"images/Tree/With_Backgrounds/difficulty5_image9.png","response":6,"category":"Tree","background_difficulty":"5","image_path":"images/Tree/With_Backgrounds/difficulty5_image9.png","trial_type":"image-button-response","trial_index":12,"time_elapsed":26262,"internal_node_id":"0.0-2.0-0.10"},{"rt":1456,"stimulus":"images/Human/With_Backgrounds/difficulty3_image0.png","response":5,"category":"Human","background_difficulty":"3","image_path":"images/Human/With_Backgrounds/difficulty3_image0.png","trial_type":"image-button-response","trial_index":13,"time_elapsed":27719,"internal_node_id":"0.0-2.0-0.11"},{"rt":1202,"stimulus":"images/Broccoli/With_Backgrounds/difficulty7_image8.png","response":1,"category":"Broccoli","background_difficulty":"7","image_path":"images/Broccoli/With_Backgrounds/difficulty7_image8.png","trial_type":"image-button-response","trial_index":14,"time_elapsed":28922,"internal_node_id":"0.0-2.0-0.12"},{"rt":1058,"stimulus":"images/Broccoli/With_Backgrounds/difficulty0_image2.png","response":1,"category":"Broccoli","background_difficulty":"0","image_path":"images/Broccoli/With_Backgrounds/difficulty0_image2.png","trial_type":"image-button-response","trial_index":15,"time_elapsed":29981,"internal_node_id":"0.0-2.0-0.13"},{"rt":1263,"stimulus":"images/Tree/With_Backgrounds/difficulty6_image3.png","response":6,"category":"Tree","background_difficulty":"6","image_path":"images/Tree/With_Backgrounds/difficulty6_image3.png","trial_type":"image-button-response","trial_index":16,"time_elapsed":31245,"internal_node_id":"0.0-2.0-0.14"},{"rt":1082,"stimulus":"images/Cat/With_Backgrounds/difficulty7_image9.png","response":3,"category":"Cat","background_difficulty":"7","image_path":"images/Cat/With_Backgrounds/difficulty7_image9.png","trial_type":"image-button-response","trial_index":17,"time_elapsed":32327,"internal_node_id":"0.0-2.0-0.15"},{"rt":1093,"stimulus":"images/Tree/With_Backgrounds/difficulty0_image4.png","response":6,"category":"Tree","background_difficulty":"0","image_path":"images/Tree/With_Backgrounds/difficulty0_image4.png","trial_type":"image-button-response","trial_index":18,"time_elapsed":33421,"internal_node_id":"0.0-2.0-0.16"},{"rt":1393,"stimulus":"images/Cat/With_Backgrounds/difficulty4_image8.png","response":3,"category":"Cat","background_difficulty":"4","image_path":"images/Cat/With_Backgrounds/difficulty4_image8.png","trial_type":"image-button-response","trial_index":19,"time_elapsed":34814,"internal_node_id":"0.0-2.0-0.17"},{"rt":2090,"stimulus":"images/Other/With_Backgrounds/difficulty8_image5.png","response":7,"category":"Other","background_difficulty":"8","image_path":"images/Other/With_Backgrounds/difficulty8_image5.png","trial_type":"image-button-response","trial_index":20,"time_elapsed":36905,"internal_node_id":"0.0-2.0-0.18"},{"rt":1590,"stimulus":"images/Cat/With_Backgrounds/difficulty6_image6.png","response":3,"category":"Cat","background_difficulty":"6","image_path":"images/Cat/With_Backgrounds/difficulty6_image6.png","trial_type":"image-button-response","trial_index":21,"time_elapsed":38497,"internal_node_id":"0.0-2.0-0.19"},{"rt":1052,"stimulus":"images/Human/With_Backgrounds/difficulty6_image2.png","response":5,"category":"Human","background_difficulty":"6","image_path":"images/Human/With_Backgrounds/difficulty6_image2.png","trial_type":"image-button-response","trial_index":22,"time_elapsed":39549,"internal_node_id":"0.0-2.0-0.20"},{"rt":1190,"stimulus":"images/Human/With_Backgrounds/difficulty1_image5.png","response":5,"category":"Human","background_difficulty":"1","image_path":"images/Human/With_Backgrounds/difficulty1_image5.png","trial_type":"image-button-response","trial_index":23,"time_elapsed":40740,"internal_node_id":"0.0-2.0-0.21"},{"rt":1203,"stimulus":"images/Cat/With_Backgrounds/difficulty3_image5.png","response":3,"category":"Cat","background_difficulty":"3","image_path":"images/Cat/With_Backgrounds/difficulty3_image5.png","trial_type":"image-button-response","trial_index":24,"time_elapsed":41942,"internal_node_id":"0.0-2.0-0.22"},{"rt":1126,"stimulus":"images/Human/With_Backgrounds/difficulty4_image3.png","response":5,"category":"Human","background_difficulty":"4","image_path":"images/Human/With_Backgrounds/difficulty4_image3.png","trial_type":"image-button-response","trial_index":25,"time_elapsed":43069,"internal_node_id":"0.0-2.0-0.23"},{"rt":1703,"stimulus":"images/Boat/With_Backgrounds/difficulty3_image3.png","response":0,"category":"Boat","background_difficulty":"3","image_path":"images/Boat/With_Backgrounds/difficulty3_image3.png","trial_type":"image-button-response","trial_index":26,"time_elapsed":44773,"internal_node_id":"0.0-2.0-0.24"},{"rt":1169,"stimulus":"images/Boat/With_Backgrounds/difficulty7_image9.png","response":0,"category":"Boat","background_difficulty":"7","image_path":"images/Boat/With_Backgrounds/difficulty7_image9.png","trial_type":"image-button-response","trial_index":27,"time_elapsed":45943,"internal_node_id":"0.0-2.0-0.25"},{"rt":961,"stimulus":"images/Boat/With_Backgrounds/difficulty2_image5.png","response":0,"category":"Boat","background_difficulty":"2","image_path":"images/Boat/With_Backgrounds/difficulty2_image5.png","trial_type":"image-button-response","trial_index":28,"time_elapsed":46905,"internal_node_id":"0.0-2.0-0.26"},{"rt":923,"stimulus":"images/Broccoli/With_Backgrounds/difficulty5_image3.png","response":1,"category":"Broccoli","background_difficulty":"5","image_path":"images/Broccoli/With_Backgrounds/difficulty5_image3.png","trial_type":"image-button-response","trial_index":29,"time_elapsed":47829,"internal_node_id":"0.0-2.0-0.27"},{"rt":1051,"stimulus":"images/Boat/With_Backgrounds/difficulty1_image2.png","response":0,"category":"Boat","background_difficulty":"1","image_path":"images/Boat/With_Backgrounds/difficulty1_image2.png","trial_type":"image-button-response","trial_index":30,"time_elapsed":48881,"internal_node_id":"0.0-2.0-0.28"},{"rt":1359,"stimulus":"images/Dog/With_Backgrounds/difficulty0_image5.png","response":4,"category":"Dog","background_difficulty":"0","image_path":"images/Dog/With_Backgrounds/difficulty0_image5.png","trial_type":"image-button-response","trial_index":31,"time_elapsed":50240,"internal_node_id":"0.0-2.0-0.29"},{"rt":1126,"stimulus":"images/Boat/With_Backgrounds/difficulty0_image0.png","response":0,"category":"Boat","background_difficulty":"0","image_path":"images/Boat/With_Backgrounds/difficulty0_image0.png","trial_type":"image-button-response","trial_index":32,"time_elapsed":51367,"internal_node_id":"0.0-2.0-0.30"},{"rt":1812,"stimulus":"images/Other/With_Backgrounds/difficulty5_image2.png","response":7,"category":"Other","background_difficulty":"5","image_path":"images/Other/With_Backgrounds/difficulty5_image2.png","trial_type":"image-button-response","trial_index":33,"time_elapsed":53180,"internal_node_id":"0.0-2.0-0.31"},{"rt":1232,"stimulus":"images/Dog/With_Backgrounds/difficulty3_image0.png","response":4,"category":"Dog","background_difficulty":"3","image_path":"images/Dog/With_Backgrounds/difficulty3_image0.png","trial_type":"image-button-response","trial_index":34,"time_elapsed":54413,"internal_node_id":"0.0-2.0-0.32"},{"rt":1191,"stimulus":"images/Car/With_Backgrounds/difficulty6_image1.png","response":2,"category":"Car","background_difficulty":"6","image_path":"images/Car/With_Backgrounds/difficulty6_image1.png","trial_type":"image-button-response","trial_index":35,"time_elapsed":55604,"internal_node_id":"0.0-2.0-0.33"},{"rt":1016,"stimulus":"images/Dog/With_Backgrounds/difficulty1_image9.png","response":4,"category":"Dog","background_difficulty":"1","image_path":"images/Dog/With_Backgrounds/difficulty1_image9.png","trial_type":"image-button-response","trial_index":36,"time_elapsed":56621,"internal_node_id":"0.0-2.0-0.34"},{"rt":1069,"stimulus":"images/Boat/With_Backgrounds/difficulty4_image4.png","response":0,"category":"Boat","background_difficulty":"4","image_path":"images/Boat/With_Backgrounds/difficulty4_image4.png","trial_type":"image-button-response","trial_index":37,"time_elapsed":57690,"internal_node_id":"0.0-2.0-0.35"},{"rt":1831,"stimulus":"images/Other/With_Backgrounds/difficulty3_image9.png","response":7,"category":"Other","background_difficulty":"3","image_path":"images/Other/With_Backgrounds/difficulty3_image9.png","trial_type":"image-button-response","trial_index":38,"time_elapsed":59522,"internal_node_id":"0.0-2.0-0.36"},{"rt":904,"stimulus":"images/Broccoli/With_Backgrounds/difficulty3_image4.png","response":1,"category":"Broccoli","background_difficulty":"3","image_path":"images/Broccoli/With_Backgrounds/difficulty3_image4.png","trial_type":"image-button-response","trial_index":39,"time_elapsed":60428,"internal_node_id":"0.0-2.0-0.37"},{"rt":1332,"stimulus":"images/Car/With_Backgrounds/difficulty7_image9.png","response":2,"category":"Car","background_difficulty":"7","image_path":"images/Car/With_Backgrounds/difficulty7_image9.png","trial_type":"image-button-response","trial_index":40,"time_elapsed":61760,"internal_node_id":"0.0-2.0-0.38"},{"rt":1050,"stimulus":"images/Car/With_Backgrounds/difficulty3_image7.png","response":2,"category":"Car","background_difficulty":"3","image_path":"images/Car/With_Backgrounds/difficulty3_image7.png","trial_type":"image-button-response","trial_index":41,"time_elapsed":62811,"internal_node_id":"0.0-2.0-0.39"},{"rt":1076,"stimulus":"images/Human/With_Backgrounds/difficulty5_image7.png","response":5,"category":"Human","background_difficulty":"5","image_path":"images/Human/With_Backgrounds/difficulty5_image7.png","trial_type":"image-button-response","trial_index":42,"time_elapsed":63888,"internal_node_id":"0.0-2.0-0.40"},{"rt":1238,"stimulus":"images/Dog/With_Backgrounds/difficulty4_image2.png","response":4,"category":"Dog","background_difficulty":"4","image_path":"images/Dog/With_Backgrounds/difficulty4_image2.png","trial_type":"image-button-response","trial_index":43,"time_elapsed":65127,"internal_node_id":"0.0-2.0-0.41"},{"rt":1190,"stimulus":"images/Broccoli/With_Backgrounds/difficulty1_image6.png","response":1,"category":"Broccoli","background_difficulty":"1","image_path":"images/Broccoli/With_Backgrounds/difficulty1_image6.png","trial_type":"image-button-response","trial_index":44,"time_elapsed":66318,"internal_node_id":"0.0-2.0-0.42"},{"rt":1276,"stimulus":"images/Cat/With_Backgrounds/difficulty8_image3.png","response":3,"category":"Cat","background_difficulty":"8","image_path":"images/Cat/With_Backgrounds/difficulty8_image3.png","trial_type":"image-button-response","trial_index":45,"time_elapsed":67595,"internal_node_id":"0.0-2.0-0.43"},{"rt":1472,"stimulus":"images/Tree/With_Backgrounds/difficulty7_image8.png","response":6,"category":"Tree","background_difficulty":"7","image_path":"images/Tree/With_Backgrounds/difficulty7_image8.png","trial_type":"image-button-response","trial_index":46,"time_elapsed":69067,"internal_node_id":"0.0-2.0-0.44"},{"rt":866,"stimulus":"images/Tree/With_Backgrounds/difficulty3_image7.png","response":6,"category":"Tree","background_difficulty":"3","image_path":"images/Tree/With_Backgrounds/difficulty3_image7.png","trial_type":"image-button-response","trial_index":47,"time_elapsed":69933,"internal_node_id":"0.0-2.0-0.45"},{"rt":901,"stimulus":"images/Boat/With_Backgrounds/difficulty8_image1.png","response":0,"category":"Boat","background_difficulty":"8","image_path":"images/Boat/With_Backgrounds/difficulty8_image1.png","trial_type":"image-button-response","trial_index":48,"time_elapsed":70836,"internal_node_id":"0.0-2.0-0.46"},{"rt":1162,"stimulus":"images/Tree/With_Backgrounds/difficulty4_image5.png","response":6,"category":"Tree","background_difficulty":"4","image_path":"images/Tree/With_Backgrounds/difficulty4_image5.png","trial_type":"image-button-response","trial_index":49,"time_elapsed":71998,"internal_node_id":"0.0-2.0-0.47"},{"rt":1071,"stimulus":"images/Cat/With_Backgrounds/difficulty0_image1.png","response":3,"category":"Cat","background_difficulty":"0","image_path":"images/Cat/With_Backgrounds/difficulty0_image1.png","trial_type":"image-button-response","trial_index":50,"time_elapsed":73070,"internal_node_id":"0.0-2.0-0.48"},{"rt":934,"stimulus":"images/Cat/With_Backgrounds/difficulty2_image4.png","response":3,"category":"Cat","background_difficulty":"2","image_path":"images/Cat/With_Backgrounds/difficulty2_image4.png","trial_type":"image-button-response","trial_index":51,"time_elapsed":74005,"internal_node_id":"0.0-2.0-0.49"},{"rt":1366,"stimulus":"images/Other/With_Backgrounds/difficulty1_image7.png","response":7,"category":"Other","background_difficulty":"1","image_path":"images/Other/With_Backgrounds/difficulty1_image7.png","trial_type":"image-button-response","trial_index":52,"time_elapsed":75372,"internal_node_id":"0.0-2.0-0.50"},{"rt":1139,"stimulus":"images/Human/With_Backgrounds/difficulty0_image9.png","response":5,"category":"Human","background_difficulty":"0","image_path":"images/Human/With_Backgrounds/difficulty0_image9.png","trial_type":"image-button-response","trial_index":53,"time_elapsed":76511,"internal_node_id":"0.0-2.0-0.51"},{"rt":1331,"stimulus":"images/Other/With_Backgrounds/difficulty6_image1.png","response":7,"category":"Other","background_difficulty":"6","image_path":"images/Other/With_Backgrounds/difficulty6_image1.png","trial_type":"image-button-response","trial_index":54,"time_elapsed":77843,"internal_node_id":"0.0-2.0-0.52"},{"rt":909,"stimulus":"images/Tree/With_Backgrounds/difficulty8_image1.png","response":6,"category":"Tree","background_difficulty":"8","image_path":"images/Tree/With_Backgrounds/difficulty8_image1.png","trial_type":"image-button-response","trial_index":55,"time_elapsed":78753,"internal_node_id":"0.0-2.0-0.53"},{"rt":1188,"stimulus":"images/Other/With_Backgrounds/difficulty4_image3.png","response":7,"category":"Other","background_difficulty":"4","image_path":"images/Other/With_Backgrounds/difficulty4_image3.png","trial_type":"image-button-response","trial_index":56,"time_elapsed":79941,"internal_node_id":"0.0-2.0-0.54"},{"rt":919,"stimulus":"images/Tree/With_Backgrounds/difficulty1_image0.png","response":6,"category":"Tree","background_difficulty":"1","image_path":"images/Tree/With_Backgrounds/difficulty1_image0.png","trial_type":"image-button-response","trial_index":57,"time_elapsed":80861,"internal_node_id":"0.0-2.0-0.55"},{"rt":948,"stimulus":"images/Dog/With_Backgrounds/difficulty5_image1.png","response":4,"category":"Dog","background_difficulty":"5","image_path":"images/Dog/With_Backgrounds/difficulty5_image1.png","trial_type":"image-button-response","trial_index":58,"time_elapsed":81809,"internal_node_id":"0.0-2.0-0.56"},{"rt":968,"stimulus":"images/Other/With_Backgrounds/difficulty2_image6.png","response":7,"category":"Other","background_difficulty":"2","image_path":"images/Other/With_Backgrounds/difficulty2_image6.png","trial_type":"image-button-response","trial_index":59,"time_elapsed":82778,"internal_node_id":"0.0-2.0-0.57"},{"rt":1051,"stimulus":"images/Dog/With_Backgrounds/difficulty6_image8.png","response":4,"category":"Dog","background_difficulty":"6","image_path":"images/Dog/With_Backgrounds/difficulty6_image8.png","trial_type":"image-button-response","trial_index":60,"time_elapsed":83830,"internal_node_id":"0.0-2.0-0.58"},{"rt":875,"stimulus":"images/Boat/With_Backgrounds/difficulty5_image7.png","response":0,"category":"Boat","background_difficulty":"5","image_path":"images/Boat/With_Backgrounds/difficulty5_image7.png","trial_type":"image-button-response","trial_index":61,"time_elapsed":84706,"internal_node_id":"0.0-2.0-0.59"},{"rt":1038,"stimulus":"images/Dog/With_Backgrounds/difficulty8_image6.png","response":4,"category":"Dog","background_difficulty":"8","image_path":"images/Dog/With_Backgrounds/difficulty8_image6.png","trial_type":"image-button-response","trial_index":62,"time_elapsed":85744,"internal_node_id":"0.0-2.0-0.60"},{"rt":2403,"stimulus":"images/Broccoli/With_Backgrounds/difficulty8_image0.png","response":1,"category":"Broccoli","background_difficulty":"8","image_path":"images/Broccoli/With_Backgrounds/difficulty8_image0.png","trial_type":"image-button-response","trial_index":63,"time_elapsed":88147,"internal_node_id":"0.0-2.0-0.61"},{"rt":988,"stimulus":"images/Human/With_Backgrounds/difficulty2_image6.png","response":5,"category":"Human","background_difficulty":"2","image_path":"images/Human/With_Backgrounds/difficulty2_image6.png","trial_type":"image-button-response","trial_index":64,"time_elapsed":89136,"internal_node_id":"0.0-2.0-0.62"},{"rt":1106,"stimulus":"images/Car/With_Backgrounds/difficulty2_image5.png","response":2,"category":"Car","background_difficulty":"2","image_path":"images/Car/With_Backgrounds/difficulty2_image5.png","trial_type":"image-button-response","trial_index":65,"time_elapsed":90243,"internal_node_id":"0.0-2.0-0.63"},{"rt":991,"stimulus":"images/Car/With_Backgrounds/difficulty8_image0.png","response":2,"category":"Car","background_difficulty":"8","image_path":"images/Car/With_Backgrounds/difficulty8_image0.png","trial_type":"image-button-response","trial_index":66,"time_elapsed":91235,"internal_node_id":"0.0-2.0-0.64"},{"rt":1061,"stimulus":"images/Human/With_Backgrounds/difficulty7_image1.png","response":5,"category":"Human","background_difficulty":"7","image_path":"images/Human/With_Backgrounds/difficulty7_image1.png","trial_type":"image-button-response","trial_index":67,"time_elapsed":92296,"internal_node_id":"0.0-2.0-0.65"},{"rt":1047,"stimulus":"images/Other/With_Backgrounds/difficulty0_image0.png","response":7,"category":"Other","background_difficulty":"0","image_path":"images/Other/With_Backgrounds/difficulty0_image0.png","trial_type":"image-button-response","trial_index":68,"time_elapsed":93344,"internal_node_id":"0.0-2.0-0.66"},{"rt":1052,"stimulus":"images/Boat/With_Backgrounds/difficulty6_image6.png","response":0,"category":"Boat","background_difficulty":"6","image_path":"images/Boat/With_Backgrounds/difficulty6_image6.png","trial_type":"image-button-response","trial_index":69,"time_elapsed":94397,"internal_node_id":"0.0-2.0-0.67"},{"rt":1108,"stimulus":"images/Cat/With_Backgrounds/difficulty5_image7.png","response":3,"category":"Cat","background_difficulty":"5","image_path":"images/Cat/With_Backgrounds/difficulty5_image7.png","trial_type":"image-button-response","trial_index":70,"time_elapsed":95506,"internal_node_id":"0.0-2.0-0.68"},{"rt":1018,"stimulus":"images/Cat/With_Backgrounds/difficulty1_image0.png","response":3,"category":"Cat","background_difficulty":"1","image_path":"images/Cat/With_Backgrounds/difficulty1_image0.png","trial_type":"image-button-response","trial_index":71,"time_elapsed":96525,"internal_node_id":"0.0-2.0-0.69"},{"rt":1052,"stimulus":"images/Car/With_Backgrounds/difficulty1_image3.png","response":2,"category":"Car","background_difficulty":"1","image_path":"images/Car/With_Backgrounds/difficulty1_image3.png","trial_type":"image-button-response","trial_index":72,"time_elapsed":97578,"internal_node_id":"0.0-2.0-0.70"},{"rt":1146,"stimulus":"images/Tree/With_Backgrounds/difficulty2_image2.png","response":6,"category":"Tree","background_difficulty":"2","image_path":"images/Tree/With_Backgrounds/difficulty2_image2.png","trial_type":"image-button-response","trial_index":73,"time_elapsed":98725,"internal_node_id":"0.0-2.0-0.71"},{"rt":1111,"stimulus":["<h2>Press the button below to end experiment.</h2><p>Thank you for participating!</p>"],"response":0,"trial_type":"html-button-response","trial_index":74,"time_elapsed":99836,"internal_node_id":"0.0-3.0"}]