[{"success":true,"timeout":false,"failed_images":[],"failed_audio":[],"failed_video":[],"trial_type":"preload","trial_index":0,"time_elapsed":2243,"internal_node_id":"0.0-0.0"},{"rt":9458,"stimulus":["<h2>Noisy background image classification</h2><p>In this experiment you will briefly see images on top of colored squares of various sizes.</p><p>Your task is to report what each image is, selecting \"None of the Above\" if none of the given options are correct.</p> <p>The possible options are <strong>Boat</strong>, <strong>Broccoli</strong>, <strong>Car</strong>, <strong>Cat</strong>, <strong>Dog</strong>, <strong>Human</strong>, <strong>Tree</strong>, and <strong>None of the Above</strong>"],"response":0,"trial_type":"html-button-response","trial_index":1,"time_elapsed":11704,"internal_node_id":"0.0-1.0"},{"rt":2792,"stimulus":"images/Other/With_Backgrounds/difficulty0_image5.png","response":7,"category":"Other","background_difficulty":"0","image_path":"images/Other/With_Backgrounds/difficulty0_image5.png","trial_type":"image-button-response","trial_index":2,"time_elapsed":14500,"internal_node_id":"0.0-2.0-0.0"},{"rt":1397,"stimulus":"images/Tree/With_Backgrounds/difficulty5_image6.png","response":6,"category":"Tree","background_difficulty":"5","image_path":"images/Tree/With_Backgrounds/difficulty5_image6.png","trial_type":"image-button-response","trial_index":3,"time_elapsed":15904,"internal_node_id":"0.0-2.0-0.1"},{"rt":1838,"stimulus":"images/Broccoli/With_Backgrounds/difficulty6_image8.png","response":1,"category":"Broccoli","background_difficulty":"6","image_path":"images/Broccoli/With_Backgrounds/difficulty6_image8.png","trial_type":"image-button-response","trial_index":4,"time_elapsed":17751,"internal_node_id":"0.0-2.0-0.2"},{"rt":3265,"stimulus":"images/Human/With_Backgrounds/difficulty6_image5.png","response":5,"category":"Human","background_difficulty":"6","image_path":"images/Human/With_Backgrounds/difficulty6_image5.png","trial_type":"image-button-response","trial_index":5,"time_elapsed":21022,"internal_node_id":"0.0-2.0-0.3"},{"rt":2853,"stimulus":"images/Other/With_Backgrounds/difficulty3_image8.png","response":7,"category":"Other","background_difficulty":"3","image_path":"images/Other/With_Backgrounds/difficulty3_image8.png","trial_type":"image-button-response","trial_index":6,"time_elapsed":23881,"internal_node_id":"0.0-2.0-0.4"},{"rt":1206,"stimulus":"images/Other/With_Backgrounds/difficulty5_image9.png","response":7,"category":"Other","background_difficulty":"5","image_path":"images/Other/With_Backgrounds/difficulty5_image9.png","trial_type":"image-button-response","trial_index":7,"time_elapsed":25093,"internal_node_id":"0.0-2.0-0.5"},{"rt":4061,"stimulus":"images/Other/With_Backgrounds/difficulty1_image2.png","response":7,"category":"Other","background_difficulty":"1","image_path":"images/Other/With_Backgrounds/difficulty1_image2.png","trial_type":"image-button-response","trial_index":8,"time_elapsed":29160,"internal_node_id":"0.0-2.0-0.6"},{"rt":1246,"stimulus":"images/Tree/With_Backgrounds/difficulty2_image7.png","response":6,"category":"Tree","background_difficulty":"2","image_path":"images/Tree/With_Backgrounds/difficulty2_image7.png","trial_type":"image-button-response","trial_index":9,"time_elapsed":30413,"internal_node_id":"0.0-2.0-0.7"},{"rt":1070,"stimulus":"images/Human/With_Backgrounds/difficulty2_image3.png","response":5,"category":"Human","background_difficulty":"2","image_path":"images/Human/With_Backgrounds/difficulty2_image3.png","trial_type":"image-button-response","trial_index":10,"time_elapsed":31488,"internal_node_id":"0.0-2.0-0.8"},{"rt":1839,"stimulus":"images/Car/With_Backgrounds/difficulty3_image7.png","response":2,"category":"Car","background_difficulty":"3","image_path":"images/Car/With_Backgrounds/difficulty3_image7.png","trial_type":"image-button-response","trial_index":11,"time_elapsed":33331,"internal_node_id":"0.0-2.0-0.9"},{"rt":1492,"stimulus":"images/Broccoli/With_Backgrounds/difficulty2_image9.png","response":1,"category":"Broccoli","background_difficulty":"2","image_path":"images/Broccoli/With_Backgrounds/difficulty2_image9.png","trial_type":"image-button-response","trial_index":12,"time_elapsed":34828,"internal_node_id":"0.0-2.0-0.10"},{"rt":1195,"stimulus":"images/Tree/With_Backgrounds/difficulty8_image0.png","response":6,"category":"Tree","background_difficulty":"8","image_path":"images/Tree/With_Backgrounds/difficulty8_image0.png","trial_type":"image-button-response","trial_index":13,"time_elapsed":36028,"internal_node_id":"0.0-2.0-0.11"},{"rt":1901,"stimulus":"images/Other/With_Backgrounds/difficulty8_image7.png","response":7,"category":"Other","background_difficulty":"8","image_path":"images/Other/With_Backgrounds/difficulty8_image7.png","trial_type":"image-button-response","trial_index":14,"time_elapsed":37938,"internal_node_id":"0.0-2.0-0.12"},{"rt":1655,"stimulus":"images/Car/With_Backgrounds/difficulty8_image0.png","response":2,"category":"Car","background_difficulty":"8","image_path":"images/Car/With_Backgrounds/difficulty8_image0.png","trial_type":"image-button-response","trial_index":15,"time_elapsed":39602,"internal_node_id":"0.0-2.0-0.13"},{"rt":1299,"stimulus":"images/Tree/With_Backgrounds/difficulty4_image1.png","response":6,"category":"Tree","background_difficulty":"4","image_path":"images/Tree/With_Backgrounds/difficulty4_image1.png","trial_type":"image-button-response","trial_index":16,"time_elapsed":40906,"internal_node_id":"0.0-2.0-0.14"},{"rt":1149,"stimulus":"images/Dog/With_Backgrounds/difficulty3_image5.png","response":4,"category":"Dog","background_difficulty":"3","image_path":"images/Dog/With_Backgrounds/difficulty3_image5.png","trial_type":"image-button-response","trial_index":17,"time_elapsed":42062,"internal_node_id":"0.0-2.0-0.15"},{"rt":1346,"stimulus":"images/Car/With_Backgrounds/difficulty1_image9.png","response":2,"category":"Car","background_difficulty":"1","image_path":"images/Car/With_Backgrounds/difficulty1_image9.png","trial_type":"image-button-response","trial_index":18,"time_elapsed":43415,"internal_node_id":"0.0-2.0-0.16"},{"rt":1482,"stimulus":"images/Broccoli/With_Backgrounds/difficulty3_image5.png","response":1,"category":"Broccoli","background_difficulty":"3","image_path":"images/Broccoli/With_Backgrounds/difficulty3_image5.png","trial_type":"image-button-response","trial_index":19,"time_elapsed":44902,"internal_node_id":"0.0-2.0-0.17"},{"rt":976,"stimulus":"images/Broccoli/With_Backgrounds/difficulty0_image4.png","response":1,"category":"Broccoli","background_difficulty":"0","image_path":"images/Broccoli/With_Backgrounds/difficulty0_image4.png","trial_type":"image-button-response","trial_index":20,"time_elapsed":45884,"internal_node_id":"0.0-2.0-0.18"},{"rt":1419,"stimulus":"images/Tree/With_Backgrounds/difficulty6_image9.png","response":6,"category":"Tree","background_difficulty":"6","image_path":"images/Tree/With_Backgrounds/difficulty6_image9.png","trial_type":"image-button-response","trial_index":21,"time_elapsed":47308,"internal_node_id":"0.0-2.0-0.19"},{"rt":1433,"stimulus":"images/Car/With_Backgrounds/difficulty0_image6.png","response":2,"category":"Car","background_difficulty":"0","image_path":"images/Car/With_Backgrounds/difficulty0_image6.png","trial_type":"image-button-response","trial_index":22,"time_elapsed":48747,"internal_node_id":"0.0-2.0-0.20"},{"rt":1292,"stimulus":"images/Cat/With_Backgrounds/difficulty5_image0.png","response":3,"category":"Cat","background_difficulty":"5","image_path":"images/Cat/With_Backgrounds/difficulty5_image0.png","trial_type":"image-button-response","trial_index":23,"time_elapsed":50043,"internal_node_id":"0.0-2.0-0.21"},{"rt":1402,"stimulus":"images/Boat/With_Backgrounds/difficulty8_image5.png","response":0,"category":"Boat","background_difficulty":"8","image_path":"images/Boat/With_Backgrounds/difficulty8_image5.png","trial_type":"image-button-response","trial_index":24,"time_elapsed":51453,"internal_node_id":"0.0-2.0-0.22"},{"rt":1240,"stimulus":"images/Dog/With_Backgrounds/difficulty4_image7.png","response":4,"category":"Dog","background_difficulty":"4","image_path":"images/Dog/With_Backgrounds/difficulty4_image7.png","trial_type":"image-button-response","trial_index":25,"time_elapsed":52697,"internal_node_id":"0.0-2.0-0.23"},{"rt":973,"stimulus":"images/Human/With_Backgrounds/difficulty0_image8.png","response":5,"category":"Human","background_difficulty":"0","image_path":"images/Human/With_Backgrounds/difficulty0_image8.png","trial_type":"image-button-response","trial_index":26,"time_elapsed":53674,"internal_node_id":"0.0-2.0-0.24"},{"rt":1418,"stimulus":"images/Car/With_Backgrounds/difficulty5_image3.png","response":2,"category":"Car","background_difficulty":"5","image_path":"images/Car/With_Backgrounds/difficulty5_image3.png","trial_type":"image-button-response","trial_index":27,"time_elapsed":55095,"internal_node_id":"0.0-2.0-0.25"},{"rt":1107,"stimulus":"images/Cat/With_Backgrounds/difficulty4_image9.png","response":3,"category":"Cat","background_difficulty":"4","image_path":"images/Cat/With_Backgrounds/difficulty4_image9.png","trial_type":"image-button-response","trial_index":28,"time_elapsed":56206,"internal_node_id":"0.0-2.0-0.26"},{"rt":1452,"stimulus":"images/Broccoli/With_Backgrounds/difficulty5_image3.png","response":1,"category":"Broccoli","background_difficulty":"5","image_path":"images/Broccoli/With_Backgrounds/difficulty5_image3.png","trial_type":"image-button-response","trial_index":29,"time_elapsed":57662,"internal_node_id":"0.0-2.0-0.27"},{"rt":981,"stimulus":"images/Cat/With_Backgrounds/difficulty1_image6.png","response":3,"category":"Cat","background_difficulty":"1","image_path":"images/Cat/With_Backgrounds/difficulty1_image6.png","trial_type":"image-button-response","trial_index":30,"time_elapsed":58647,"internal_node_id":"0.0-2.0-0.28"},{"rt":1102,"stimulus":"images/Boat/With_Backgrounds/difficulty1_image4.png","response":0,"category":"Boat","background_difficulty":"1","image_path":"images/Boat/With_Backgrounds/difficulty1_image4.png","trial_type":"image-button-response","trial_index":31,"time_elapsed":59755,"internal_node_id":"0.0-2.0-0.29"},{"rt":1258,"stimulus":"images/Car/With_Backgrounds/difficulty2_image8.png","response":2,"category":"Car","background_difficulty":"2","image_path":"images/Car/With_Backgrounds/difficulty2_image8.png","trial_type":"image-button-response","trial_index":32,"time_elapsed":61016,"internal_node_id":"0.0-2.0-0.30"},{"rt":1025,"stimulus":"images/Dog/With_Backgrounds/difficulty1_image9.png","response":4,"category":"Dog","background_difficulty":"1","image_path":"images/Dog/With_Backgrounds/difficulty1_image9.png","trial_type":"image-button-response","trial_index":33,"time_elapsed":62049,"internal_node_id":"0.0-2.0-0.31"},{"rt":1033,"stimulus":"images/Cat/With_Backgrounds/difficulty0_image4.png","response":3,"category":"Cat","background_difficulty":"0","image_path":"images/Cat/With_Backgrounds/difficulty0_image4.png","trial_type":"image-button-response","trial_index":34,"time_elapsed":63087,"internal_node_id":"0.0-2.0-0.32"},{"rt":1868,"stimulus":"images/Other/With_Backgrounds/difficulty4_image4.png","response":7,"category":"Other","background_difficulty":"4","image_path":"images/Other/With_Backgrounds/difficulty4_image4.png","trial_type":"image-button-response","trial_index":35,"time_elapsed":64959,"internal_node_id":"0.0-2.0-0.33"},{"rt":1201,"stimulus":"images/Human/With_Backgrounds/difficulty4_image0.png","response":5,"category":"Human","background_difficulty":"4","image_path":"images/Human/With_Backgrounds/difficulty4_image0.png","trial_type":"image-button-response","trial_index":36,"time_elapsed":66167,"internal_node_id":"0.0-2.0-0.34"},{"rt":1280,"stimulus":"images/Human/With_Backgrounds/difficulty7_image9.png","response":5,"category":"Human","background_difficulty":"7","image_path":"images/Human/With_Backgrounds/difficulty7_image9.png","trial_type":"image-button-response","trial_index":37,"time_elapsed":67454,"internal_node_id":"0.0-2.0-0.35"},{"rt":1420,"stimulus":"images/Broccoli/With_Backgrounds/difficulty1_image2.png","response":1,"category":"Broccoli","background_difficulty":"1","image_path":"images/Broccoli/With_Backgrounds/difficulty1_image2.png","trial_type":"image-button-response","trial_index":38,"time_elapsed":68880,"internal_node_id":"0.0-2.0-0.36"},{"rt":1276,"stimulus":"images/Boat/With_Backgrounds/difficulty0_image3.png","response":0,"category":"Boat","background_difficulty":"0","image_path":"images/Boat/With_Backgrounds/difficulty0_image3.png","trial_type":"image-button-response","trial_index":39,"time_elapsed":70161,"internal_node_id":"0.0-2.0-0.37"},{"rt":1276,"stimulus":"images/Boat/With_Backgrounds/difficulty5_image6.png","response":0,"category":"Boat","background_difficulty":"5","image_path":"images/Boat/With_Backgrounds/difficulty5_image6.png","trial_type":"image-button-response","trial_index":40,"time_elapsed":71441,"internal_node_id":"0.0-2.0-0.38"},{"rt":1216,"stimulus":"images/Dog/With_Backgrounds/difficulty6_image8.png","response":4,"category":"Dog","background_difficulty":"6","image_path":"images/Dog/With_Backgrounds/difficulty6_image8.png","trial_type":"image-button-response","trial_index":41,"time_elapsed":72665,"internal_node_id":"0.0-2.0-0.39"},{"rt":882,"stimulus":"images/Dog/With_Backgrounds/difficulty7_image4.png","response":4,"category":"Dog","background_difficulty":"7","image_path":"images/Dog/With_Backgrounds/difficulty7_image4.png","trial_type":"image-button-response","trial_index":42,"time_elapsed":73555,"internal_node_id":"0.0-2.0-0.40"},{"rt":817,"stimulus":"images/Dog/With_Backgrounds/difficulty2_image6.png","response":4,"category":"Dog","background_difficulty":"2","image_path":"images/Dog/With_Backgrounds/difficulty2_image6.png","trial_type":"image-button-response","trial_index":43,"time_elapsed":74379,"internal_node_id":"0.0-2.0-0.41"},{"rt":992,"stimulus":"images/Human/With_Backgrounds/difficulty1_image2.png","response":5,"category":"Human","background_difficulty":"1","image_path":"images/Human/With_Backgrounds/difficulty1_image2.png","trial_type":"image-button-response","trial_index":44,"time_elapsed":75378,"internal_node_id":"0.0-2.0-0.42"},{"rt":1254,"stimulus":"images/Tree/With_Backgrounds/difficulty0_image4.png","response":6,"category":"Tree","background_difficulty":"0","image_path":"images/Tree/With_Backgrounds/difficulty0_image4.png","trial_type":"image-button-response","trial_index":45,"time_elapsed":76639,"internal_node_id":"0.0-2.0-0.43"},{"rt":1299,"stimulus":"images/Other/With_Backgrounds/difficulty7_image3.png","response":7,"category":"Other","background_difficulty":"7","image_path":"images/Other/With_Backgrounds/difficulty7_image3.png","trial_type":"image-button-response","trial_index":46,"time_elapsed":77947,"internal_node_id":"0.0-2.0-0.44"},{"rt":1138,"stimulus":"images/Boat/With_Backgrounds/difficulty7_image1.png","response":0,"category":"Boat","background_difficulty":"7","image_path":"images/Boat/With_Backgrounds/difficulty7_image1.png","trial_type":"image-button-response","trial_index":47,"time_elapsed":79092,"internal_node_id":"0.0-2.0-0.45"},{"rt":1067,"stimulus":"images/Human/With_Backgrounds/difficulty5_image7.png","response":5,"category":"Human","background_difficulty":"5","image_path":"images/Human/With_Backgrounds/difficulty5_image7.png","trial_type":"image-button-response","trial_index":48,"time_elapsed":80166,"internal_node_id":"0.0-2.0-0.46"},{"rt":1037,"stimulus":"images/Tree/With_Backgrounds/difficulty7_image5.png","response":6,"category":"Tree","background_difficulty":"7","image_path":"images/Tree/With_Backgrounds/difficulty7_image5.png","trial_type":"image-button-response","trial_index":49,"time_elapsed":81210,"internal_node_id":"0.0-2.0-0.47"},{"rt":1204,"stimulus":"images/Dog/With_Backgrounds/difficulty0_image0.png","response":4,"category":"Dog","background_difficulty":"0","image_path":"images/Dog/With_Backgrounds/difficulty0_image0.png","trial_type":"image-button-response","trial_index":50,"time_elapsed":82420,"internal_node_id":"0.0-2.0-0.48"},{"rt":912,"stimulus":"images/Human/With_Backgrounds/difficulty8_image4.png","response":5,"category":"Human","background_difficulty":"8","image_path":"images/Human/With_Backgrounds/difficulty8_image4.png","trial_type":"image-button-response","trial_index":51,"time_elapsed":83340,"internal_node_id":"0.0-2.0-0.49"},{"rt":1085,"stimulus":"images/Boat/With_Backgrounds/difficulty2_image2.png","response":0,"category":"Boat","background_difficulty":"2","image_path":"images/Boat/With_Backgrounds/difficulty2_image2.png","trial_type":"image-button-response","trial_index":52,"time_elapsed":84431,"internal_node_id":"0.0-2.0-0.50"},{"rt":1215,"stimulus":"images/Other/With_Backgrounds/difficulty2_image1.png","response":7,"category":"Other","background_difficulty":"2","image_path":"images/Other/With_Backgrounds/difficulty2_image1.png","trial_type":"image-button-response","trial_index":53,"time_elapsed":85654,"internal_node_id":"0.0-2.0-0.51"},{"rt":1142,"stimulus":"images/Other/With_Backgrounds/difficulty6_image6.png","response":7,"category":"Other","background_difficulty":"6","image_path":"images/Other/With_Backgrounds/difficulty6_image6.png","trial_type":"image-button-response","trial_index":54,"time_elapsed":86803,"internal_node_id":"0.0-2.0-0.52"},{"rt":1556,"stimulus":"images/Broccoli/With_Backgrounds/difficulty4_image1.png","response":1,"category":"Broccoli","background_difficulty":"4","image_path":"images/Broccoli/With_Backgrounds/difficulty4_image1.png","trial_type":"image-button-response","trial_index":55,"time_elapsed":88366,"internal_node_id":"0.0-2.0-0.53"},{"rt":1367,"stimulus":"images/Car/With_Backgrounds/difficulty7_image5.png","response":2,"category":"Car","background_difficulty":"7","image_path":"images/Car/With_Backgrounds/difficulty7_image5.png","trial_type":"image-button-response","trial_index":56,"time_elapsed":89742,"internal_node_id":"0.0-2.0-0.54"},{"rt":1152,"stimulus":"images/Cat/With_Backgrounds/difficulty8_image8.png","response":3,"category":"Cat","background_difficulty":"8","image_path":"images/Cat/With_Backgrounds/difficulty8_image8.png","trial_type":"image-button-response","trial_index":57,"time_elapsed":90901,"internal_node_id":"0.0-2.0-0.55"},{"rt":888,"stimulus":"images/Cat/With_Backgrounds/difficulty6_image2.png","response":3,"category":"Cat","background_difficulty":"6","image_path":"images/Cat/With_Backgrounds/difficulty6_image2.png","trial_type":"image-button-response","trial_index":58,"time_elapsed":91795,"internal_node_id":"0.0-2.0-0.56"},{"rt":2194,"stimulus":"images/Boat/With_Backgrounds/difficulty3_image7.png","response":0,"category":"Boat","background_difficulty":"3","image_path":"images/Boat/With_Backgrounds/difficulty3_image7.png","trial_type":"image-button-response","trial_index":59,"time_elapsed":93996,"internal_node_id":"0.0-2.0-0.57"},{"rt":906,"stimulus":"images/Boat/With_Backgrounds/difficulty4_image8.png","response":0,"category":"Boat","background_difficulty":"4","image_path":"images/Boat/With_Backgrounds/difficulty4_image8.png","trial_type":"image-button-response","trial_index":60,"time_elapsed":94908,"internal_node_id":"0.0-2.0-0.58"},{"rt":896,"stimulus":"images/Boat/With_Backgrounds/difficulty6_image9.png","response":0,"category":"Boat","background_difficulty":"6","image_path":"images/Boat/With_Backgrounds/difficulty6_image9.png","trial_type":"image-button-response","trial_index":61,"time_elapsed":95811,"internal_node_id":"0.0-2.0-0.59"},{"rt":1159,"stimulus":"images/Human/With_Backgrounds/difficulty3_image1.png","response":5,"category":"Human","background_difficulty":"3","image_path":"images/Human/With_Backgrounds/difficulty3_image1.png","trial_type":"image-button-response","trial_index":62,"time_elapsed":96976,"internal_node_id":"0.0-2.0-0.60"},{"rt":984,"stimulus":"images/Cat/With_Backgrounds/difficulty2_image1.png","response":3,"category":"Cat","background_difficulty":"2","image_path":"images/Cat/With_Backgrounds/difficulty2_image1.png","trial_type":"image-button-response","trial_index":63,"time_elapsed":97967,"internal_node_id":"0.0-2.0-0.61"},{"rt":1014,"stimulus":"images/Tree/With_Backgrounds/difficulty1_image8.png","response":6,"category":"Tree","background_difficulty":"1","image_path":"images/Tree/With_Backgrounds/difficulty1_image8.png","trial_type":"image-button-response","trial_index":64,"time_elapsed":98987,"internal_node_id":"0.0-2.0-0.62"},{"rt":1236,"stimulus":"images/Cat/With_Backgrounds/difficulty3_image7.png","response":3,"category":"Cat","background_difficulty":"3","image_path":"images/Cat/With_Backgrounds/difficulty3_image7.png","trial_type":"image-button-response","trial_index":65,"time_elapsed":100232,"internal_node_id":"0.0-2.0-0.63"},{"rt":1086,"stimulus":"images/Car/With_Backgrounds/difficulty4_image2.png","response":2,"category":"Car","background_difficulty":"4","image_path":"images/Car/With_Backgrounds/difficulty4_image2.png","trial_type":"image-button-response","trial_index":66,"time_elapsed":101326,"internal_node_id":"0.0-2.0-0.64"},{"rt":1173,"stimulus":"images/Dog/With_Backgrounds/difficulty5_image2.png","response":4,"category":"Dog","background_difficulty":"5","image_path":"images/Dog/With_Backgrounds/difficulty5_image2.png","trial_type":"image-button-response","trial_index":67,"time_elapsed":102504,"internal_node_id":"0.0-2.0-0.65"},{"rt":1051,"stimulus":"images/Cat/With_Backgrounds/difficulty7_image3.png","response":3,"category":"Cat","background_difficulty":"7","image_path":"images/Cat/With_Backgrounds/difficulty7_image3.png","trial_type":"image-button-response","trial_index":68,"time_elapsed":103560,"internal_node_id":"0.0-2.0-0.66"},{"rt":1415,"stimulus":"images/Broccoli/With_Backgrounds/difficulty7_image6.png","response":1,"category":"Broccoli","background_difficulty":"7","image_path":"images/Broccoli/With_Backgrounds/difficulty7_image6.png","trial_type":"image-button-response","trial_index":69,"time_elapsed":104981,"internal_node_id":"0.0-2.0-0.67"},{"rt":844,"stimulus":"images/Broccoli/With_Backgrounds/difficulty8_image7.png","response":1,"category":"Broccoli","background_difficulty":"8","image_path":"images/Broccoli/With_Backgrounds/difficulty8_image7.png","trial_type":"image-button-response","trial_index":70,"time_elapsed":105834,"internal_node_id":"0.0-2.0-0.68"},{"rt":1288,"stimulus":"images/Car/With_Backgrounds/difficulty6_image1.png","response":2,"category":"Car","background_difficulty":"6","image_path":"images/Car/With_Backgrounds/difficulty6_image1.png","trial_type":"image-button-response","trial_index":71,"time_elapsed":107130,"internal_node_id":"0.0-2.0-0.69"},{"rt":1275,"stimulus":"images/Tree/With_Backgrounds/difficulty3_image3.png","response":6,"category":"Tree","background_difficulty":"3","image_path":"images/Tree/With_Backgrounds/difficulty3_image3.png","trial_type":"image-button-response","trial_index":72,"time_elapsed":108409,"internal_node_id":"0.0-2.0-0.70"},{"rt":1101,"stimulus":"images/Dog/With_Backgrounds/difficulty8_image3.png","response":4,"category":"Dog","background_difficulty":"8","image_path":"images/Dog/With_Backgrounds/difficulty8_image3.png","trial_type":"image-button-response","trial_index":73,"time_elapsed":109517,"internal_node_id":"0.0-2.0-0.71"},{"rt":1089,"stimulus":["<h2>Press the button below to end experiment.</h2><p>Thank you for participating!</p>"],"response":0,"trial_type":"html-button-response","trial_index":74,"time_elapsed":110607,"internal_node_id":"0.0-3.0"}]