[{"success":true,"timeout":false,"failed_images":[],"failed_audio":[],"failed_video":[],"trial_type":"preload","trial_index":0,"time_elapsed":989,"internal_node_id":"0.0-0.0"},{"rt":12021,"stimulus":["<h2>Noisy background image classification</h2><p>In this experiment you will briefly see images on top of colored squares of various sizes.</p><p>Your task is to report what each image is, selecting \"None of the Above\" if none of the given options are correct.</p> <p>The possible options are <strong>Boat</strong>, <strong>Broccoli</strong>, <strong>Car</strong>, <strong>Cat</strong>, <strong>Dog</strong>, <strong>Human</strong>, <strong>Tree</strong>, and <strong>None of the Above</strong>"],"response":0,"trial_type":"html-button-response","trial_index":1,"time_elapsed":13014,"internal_node_id":"0.0-1.0"},{"rt":2023,"stimulus":"images/Dog/With_Backgrounds/difficulty8_image6.png","response":4,"category":"Dog","background_difficulty":"8","image_path":"images/Dog/With_Backgrounds/difficulty8_image6.png","trial_type":"image-button-response","trial_index":2,"time_elapsed":15063,"internal_node_id":"0.0-2.0-0.0"},{"rt":1444,"stimulus":"images/Dog/With_Backgrounds/difficulty2_image5.png","response":4,"category":"Dog","background_difficulty":"2","image_path":"images/Dog/With_Backgrounds/difficulty2_image5.png","trial_type":"image-button-response","trial_index":3,"time_elapsed":16518,"internal_node_id":"0.0-2.0-0.1"},{"rt":1939,"stimulus":"images/Car/With_Backgrounds/difficulty7_image7.png","response":2,"category":"Car","background_difficulty":"7","image_path":"images/Car/With_Backgrounds/difficulty7_image7.png","trial_type":"image-button-response","trial_index":4,"time_elapsed":18469,"internal_node_id":"0.0-2.0-0.2"},{"rt":1305,"stimulus":"images/Car/With_Backgrounds/difficulty1_image4.png","response":2,"category":"Car","background_difficulty":"1","image_path":"images/Car/With_Backgrounds/difficulty1_image4.png","trial_type":"image-button-response","trial_index":5,"time_elapsed":19784,"internal_node_id":"0.0-2.0-0.3"},{"rt":1372,"stimulus":"images/Car/With_Backgrounds/difficulty0_image6.png","response":2,"category":"Car","background_difficulty":"0","image_path":"images/Car/With_Backgrounds/difficulty0_image6.png","trial_type":"image-button-response","trial_index":6,"time_elapsed":21167,"internal_node_id":"0.0-2.0-0.4"},{"rt":2033,"stimulus":"images/Boat/With_Backgrounds/difficulty4_image5.png","response":0,"category":"Boat","background_difficulty":"4","image_path":"images/Boat/With_Backgrounds/difficulty4_image5.png","trial_type":"image-button-response","trial_index":7,"time_elapsed":23209,"internal_node_id":"0.0-2.0-0.5"},{"rt":2372,"stimulus":"images/Other/With_Backgrounds/difficulty1_image8.png","response":7,"category":"Other","background_difficulty":"1","image_path":"images/Other/With_Backgrounds/difficulty1_image8.png","trial_type":"image-button-response","trial_index":8,"time_elapsed":25592,"internal_node_id":"0.0-2.0-0.6"},{"rt":1482,"stimulus":"images/Dog/With_Backgrounds/difficulty3_image3.png","response":4,"category":"Dog","background_difficulty":"3","image_path":"images/Dog/With_Backgrounds/difficulty3_image3.png","trial_type":"image-button-response","trial_index":9,"time_elapsed":27084,"internal_node_id":"0.0-2.0-0.7"},{"rt":1632,"stimulus":"images/Boat/With_Backgrounds/difficulty1_image8.png","response":0,"category":"Boat","background_difficulty":"1","image_path":"images/Boat/With_Backgrounds/difficulty1_image8.png","trial_type":"image-button-response","trial_index":10,"time_elapsed":28725,"internal_node_id":"0.0-2.0-0.8"},{"rt":1253,"stimulus":"images/Broccoli/With_Backgrounds/difficulty0_image9.png","response":1,"category":"Broccoli","background_difficulty":"0","image_path":"images/Broccoli/With_Backgrounds/difficulty0_image9.png","trial_type":"image-button-response","trial_index":11,"time_elapsed":29986,"internal_node_id":"0.0-2.0-0.9"},{"rt":2115,"stimulus":"images/Tree/With_Backgrounds/difficulty5_image1.png","response":6,"category":"Tree","background_difficulty":"5","image_path":"images/Tree/With_Backgrounds/difficulty5_image1.png","trial_type":"image-button-response","trial_index":12,"time_elapsed":32108,"internal_node_id":"0.0-2.0-0.10"},{"rt":1501,"stimulus":"images/Cat/With_Backgrounds/difficulty3_image1.png","response":3,"category":"Cat","background_difficulty":"3","image_path":"images/Cat/With_Backgrounds/difficulty3_image1.png","trial_type":"image-button-response","trial_index":13,"time_elapsed":33618,"internal_node_id":"0.0-2.0-0.11"},{"rt":1387,"stimulus":"images/Broccoli/With_Backgrounds/difficulty2_image1.png","response":1,"category":"Broccoli","background_difficulty":"2","image_path":"images/Broccoli/With_Backgrounds/difficulty2_image1.png","trial_type":"image-button-response","trial_index":14,"time_elapsed":35016,"internal_node_id":"0.0-2.0-0.12"},{"rt":1322,"stimulus":"images/Car/With_Backgrounds/difficulty5_image5.png","response":2,"category":"Car","background_difficulty":"5","image_path":"images/Car/With_Backgrounds/difficulty5_image5.png","trial_type":"image-button-response","trial_index":15,"time_elapsed":36350,"internal_node_id":"0.0-2.0-0.13"},{"rt":1751,"stimulus":"images/Other/With_Backgrounds/difficulty7_image0.png","response":7,"category":"Other","background_difficulty":"7","image_path":"images/Other/With_Backgrounds/difficulty7_image0.png","trial_type":"image-button-response","trial_index":16,"time_elapsed":38114,"internal_node_id":"0.0-2.0-0.14"},{"rt":1535,"stimulus":"images/Tree/With_Backgrounds/difficulty1_image4.png","response":6,"category":"Tree","background_difficulty":"1","image_path":"images/Tree/With_Backgrounds/difficulty1_image4.png","trial_type":"image-button-response","trial_index":17,"time_elapsed":39658,"internal_node_id":"0.0-2.0-0.15"},{"rt":1591,"stimulus":"images/Broccoli/With_Backgrounds/difficulty8_image2.png","response":1,"category":"Broccoli","background_difficulty":"8","image_path":"images/Broccoli/With_Backgrounds/difficulty8_image2.png","trial_type":"image-button-response","trial_index":18,"time_elapsed":41261,"internal_node_id":"0.0-2.0-0.16"},{"rt":2284,"stimulus":"images/Other/With_Backgrounds/difficulty6_image7.png","response":7,"category":"Other","background_difficulty":"6","image_path":"images/Other/With_Backgrounds/difficulty6_image7.png","trial_type":"image-button-response","trial_index":19,"time_elapsed":43557,"internal_node_id":"0.0-2.0-0.17"},{"rt":1314,"stimulus":"images/Broccoli/With_Backgrounds/difficulty3_image0.png","response":1,"category":"Broccoli","background_difficulty":"3","image_path":"images/Broccoli/With_Backgrounds/difficulty3_image0.png","trial_type":"image-button-response","trial_index":20,"time_elapsed":44882,"internal_node_id":"0.0-2.0-0.18"},{"rt":1499,"stimulus":"images/Dog/With_Backgrounds/difficulty0_image1.png","response":4,"category":"Dog","background_difficulty":"0","image_path":"images/Dog/With_Backgrounds/difficulty0_image1.png","trial_type":"image-button-response","trial_index":21,"time_elapsed":46399,"internal_node_id":"0.0-2.0-0.19"},{"rt":1321,"stimulus":"images/Dog/With_Backgrounds/difficulty6_image0.png","response":4,"category":"Dog","background_difficulty":"6","image_path":"images/Dog/With_Backgrounds/difficulty6_image0.png","trial_type":"image-button-response","trial_index":22,"time_elapsed":47732,"internal_node_id":"0.0-2.0-0.20"},{"rt":1438,"stimulus":"images/Cat/With_Backgrounds/difficulty1_image9.png","response":3,"category":"Cat","background_difficulty":"1","image_path":"images/Cat/With_Backgrounds/difficulty1_image9.png","trial_type":"image-button-response","trial_index":23,"time_elapsed":49183,"internal_node_id":"0.0-2.0-0.21"},{"rt":1180,"stimulus":"images/Dog/With_Backgrounds/difficulty5_image9.png","response":4,"category":"Dog","background_difficulty":"5","image_path":"images/Dog/With_Backgrounds/difficulty5_image9.png","trial_type":"image-button-response","trial_index":24,"time_elapsed":50373,"internal_node_id":"0.0-2.0-0.22"},{"rt":1388,"stimulus":"images/Tree/With_Backgrounds/difficulty7_image2.png","response":6,"category":"Tree","background_difficulty":"7","image_path":"images/Tree/With_Backgrounds/difficulty7_image2.png","trial_type":"image-button-response","trial_index":25,"time_elapsed":51773,"internal_node_id":"0.0-2.0-0.23"},{"rt":2166,"stimulus":"images/Other/With_Backgrounds/difficulty0_image1.png","response":7,"category":"Other","background_difficulty":"0","image_path":"images/Other/With_Backgrounds/difficulty0_image1.png","trial_type":"image-button-response","trial_index":26,"time_elapsed":53950,"internal_node_id":"0.0-2.0-0.24"},{"rt":1363,"stimulus":"images/Broccoli/With_Backgrounds/difficulty4_image4.png","response":1,"category":"Broccoli","background_difficulty":"4","image_path":"images/Broccoli/With_Backgrounds/difficulty4_image4.png","trial_type":"image-button-response","trial_index":27,"time_elapsed":55323,"internal_node_id":"0.0-2.0-0.25"},{"rt":1456,"stimulus":"images/Boat/With_Backgrounds/difficulty0_image9.png","response":0,"category":"Boat","background_difficulty":"0","image_path":"images/Boat/With_Backgrounds/difficulty0_image9.png","trial_type":"image-button-response","trial_index":28,"time_elapsed":56791,"internal_node_id":"0.0-2.0-0.26"},{"rt":1364,"stimulus":"images/Dog/With_Backgrounds/difficulty4_image8.png","response":4,"category":"Dog","background_difficulty":"4","image_path":"images/Dog/With_Backgrounds/difficulty4_image8.png","trial_type":"image-button-response","trial_index":29,"time_elapsed":58165,"internal_node_id":"0.0-2.0-0.27"},{"rt":1278,"stimulus":"images/Broccoli/With_Backgrounds/difficulty7_image6.png","response":1,"category":"Broccoli","background_difficulty":"7","image_path":"images/Broccoli/With_Backgrounds/difficulty7_image6.png","trial_type":"image-button-response","trial_index":30,"time_elapsed":59456,"internal_node_id":"0.0-2.0-0.28"},{"rt":1966,"stimulus":"images/Boat/With_Backgrounds/difficulty2_image6.png","response":0,"category":"Boat","background_difficulty":"2","image_path":"images/Boat/With_Backgrounds/difficulty2_image6.png","trial_type":"image-button-response","trial_index":31,"time_elapsed":61431,"internal_node_id":"0.0-2.0-0.29"},{"rt":1829,"stimulus":"images/Human/With_Backgrounds/difficulty2_image6.png","response":5,"category":"Human","background_difficulty":"2","image_path":"images/Human/With_Backgrounds/difficulty2_image6.png","trial_type":"image-button-response","trial_index":32,"time_elapsed":63273,"internal_node_id":"0.0-2.0-0.30"},{"rt":1482,"stimulus":"images/Boat/With_Backgrounds/difficulty8_image2.png","response":0,"category":"Boat","background_difficulty":"8","image_path":"images/Boat/With_Backgrounds/difficulty8_image2.png","trial_type":"image-button-response","trial_index":33,"time_elapsed":64764,"internal_node_id":"0.0-2.0-0.31"},{"rt":1215,"stimulus":"images/Boat/With_Backgrounds/difficulty6_image3.png","response":0,"category":"Boat","background_difficulty":"6","image_path":"images/Boat/With_Backgrounds/difficulty6_image3.png","trial_type":"image-button-response","trial_index":34,"time_elapsed":65990,"internal_node_id":"0.0-2.0-0.32"},{"rt":1303,"stimulus":"images/Tree/With_Backgrounds/difficulty8_image6.png","response":6,"category":"Tree","background_difficulty":"8","image_path":"images/Tree/With_Backgrounds/difficulty8_image6.png","trial_type":"image-button-response","trial_index":35,"time_elapsed":67306,"internal_node_id":"0.0-2.0-0.33"},{"rt":1382,"stimulus":"images/Cat/With_Backgrounds/difficulty2_image8.png","response":3,"category":"Cat","background_difficulty":"2","image_path":"images/Cat/With_Backgrounds/difficulty2_image8.png","trial_type":"image-button-response","trial_index":36,"time_elapsed":68698,"internal_node_id":"0.0-2.0-0.34"},{"rt":1248,"stimulus":"images/Broccoli/With_Backgrounds/difficulty6_image3.png","response":1,"category":"Broccoli","background_difficulty":"6","image_path":"images/Broccoli/With_Backgrounds/difficulty6_image3.png","trial_type":"image-button-response","trial_index":37,"time_elapsed":69959,"internal_node_id":"0.0-2.0-0.35"},{"rt":1462,"stimulus":"images/Tree/With_Backgrounds/difficulty4_image7.png","response":6,"category":"Tree","background_difficulty":"4","image_path":"images/Tree/With_Backgrounds/difficulty4_image7.png","trial_type":"image-button-response","trial_index":38,"time_elapsed":71431,"internal_node_id":"0.0-2.0-0.36"},{"rt":1352,"stimulus":"images/Cat/With_Backgrounds/difficulty5_image5.png","response":3,"category":"Cat","background_difficulty":"5","image_path":"images/Cat/With_Backgrounds/difficulty5_image5.png","trial_type":"image-button-response","trial_index":39,"time_elapsed":72794,"internal_node_id":"0.0-2.0-0.37"},{"rt":1510,"stimulus":"images/Tree/With_Backgrounds/difficulty2_image9.png","response":6,"category":"Tree","background_difficulty":"2","image_path":"images/Tree/With_Backgrounds/difficulty2_image9.png","trial_type":"image-button-response","trial_index":40,"time_elapsed":74312,"internal_node_id":"0.0-2.0-0.38"},{"rt":1525,"stimulus":"images/Cat/With_Backgrounds/difficulty7_image6.png","response":3,"category":"Cat","background_difficulty":"7","image_path":"images/Cat/With_Backgrounds/difficulty7_image6.png","trial_type":"image-button-response","trial_index":41,"time_elapsed":75846,"internal_node_id":"0.0-2.0-0.39"},{"rt":2306,"stimulus":"images/Other/With_Backgrounds/difficulty2_image4.png","response":7,"category":"Other","background_difficulty":"2","image_path":"images/Other/With_Backgrounds/difficulty2_image4.png","trial_type":"image-button-response","trial_index":42,"time_elapsed":78163,"internal_node_id":"0.0-2.0-0.40"},{"rt":1444,"stimulus":"images/Human/With_Backgrounds/difficulty1_image4.png","response":5,"category":"Human","background_difficulty":"1","image_path":"images/Human/With_Backgrounds/difficulty1_image4.png","trial_type":"image-button-response","trial_index":43,"time_elapsed":79622,"internal_node_id":"0.0-2.0-0.41"},{"rt":2122,"stimulus":"images/Other/With_Backgrounds/difficulty4_image5.png","response":7,"category":"Other","background_difficulty":"4","image_path":"images/Other/With_Backgrounds/difficulty4_image5.png","trial_type":"image-button-response","trial_index":44,"time_elapsed":81755,"internal_node_id":"0.0-2.0-0.42"},{"rt":1329,"stimulus":"images/Cat/With_Backgrounds/difficulty6_image7.png","response":3,"category":"Cat","background_difficulty":"6","image_path":"images/Cat/With_Backgrounds/difficulty6_image7.png","trial_type":"image-button-response","trial_index":45,"time_elapsed":83097,"internal_node_id":"0.0-2.0-0.43"},{"rt":1357,"stimulus":"images/Tree/With_Backgrounds/difficulty3_image5.png","response":6,"category":"Tree","background_difficulty":"3","image_path":"images/Tree/With_Backgrounds/difficulty3_image5.png","trial_type":"image-button-response","trial_index":46,"time_elapsed":84466,"internal_node_id":"0.0-2.0-0.44"},{"rt":1411,"stimulus":"images/Broccoli/With_Backgrounds/difficulty1_image7.png","response":1,"category":"Broccoli","background_difficulty":"1","image_path":"images/Broccoli/With_Backgrounds/difficulty1_image7.png","trial_type":"image-button-response","trial_index":47,"time_elapsed":85888,"internal_node_id":"0.0-2.0-0.45"},{"rt":1373,"stimulus":"images/Dog/With_Backgrounds/difficulty1_image7.png","response":4,"category":"Dog","background_difficulty":"1","image_path":"images/Dog/With_Backgrounds/difficulty1_image7.png","trial_type":"image-button-response","trial_index":48,"time_elapsed":87272,"internal_node_id":"0.0-2.0-0.46"},{"rt":1421,"stimulus":"images/Human/With_Backgrounds/difficulty5_image8.png","response":5,"category":"Human","background_difficulty":"5","image_path":"images/Human/With_Backgrounds/difficulty5_image8.png","trial_type":"image-button-response","trial_index":49,"time_elapsed":88706,"internal_node_id":"0.0-2.0-0.47"},{"rt":1253,"stimulus":"images/Tree/With_Backgrounds/difficulty0_image3.png","response":6,"category":"Tree","background_difficulty":"0","image_path":"images/Tree/With_Backgrounds/difficulty0_image3.png","trial_type":"image-button-response","trial_index":50,"time_elapsed":89970,"internal_node_id":"0.0-2.0-0.48"},{"rt":1302,"stimulus":"images/Human/With_Backgrounds/difficulty8_image2.png","response":5,"category":"Human","background_difficulty":"8","image_path":"images/Human/With_Backgrounds/difficulty8_image2.png","trial_type":"image-button-response","trial_index":51,"time_elapsed":91288,"internal_node_id":"0.0-2.0-0.49"},{"rt":1235,"stimulus":"images/Cat/With_Backgrounds/difficulty8_image2.png","response":3,"category":"Cat","background_difficulty":"8","image_path":"images/Cat/With_Backgrounds/difficulty8_image2.png","trial_type":"image-button-response","trial_index":52,"time_elapsed":92536,"internal_node_id":"0.0-2.0-0.50"},{"rt":1809,"stimulus":"images/Car/With_Backgrounds/difficulty3_image1.png","response":2,"category":"Car","background_difficulty":"3","image_path":"images/Car/With_Backgrounds/difficulty3_image1.png","trial_type":"image-button-response","trial_index":53,"time_elapsed":94353,"internal_node_id":"0.0-2.0-0.51"},{"rt":1289,"stimulus":"images/Car/With_Backgrounds/difficulty8_image9.png","response":2,"category":"Car","background_difficulty":"8","image_path":"images/Car/With_Backgrounds/difficulty8_image9.png","trial_type":"image-button-response","trial_index":54,"time_elapsed":95654,"internal_node_id":"0.0-2.0-0.52"},{"rt":1236,"stimulus":"images/Human/With_Backgrounds/difficulty7_image5.png","response":5,"category":"Human","background_difficulty":"7","image_path":"images/Human/With_Backgrounds/difficulty7_image5.png","trial_type":"image-button-response","trial_index":55,"time_elapsed":96904,"internal_node_id":"0.0-2.0-0.53"},{"rt":1133,"stimulus":"images/Human/With_Backgrounds/difficulty6_image9.png","response":5,"category":"Human","background_difficulty":"6","image_path":"images/Human/With_Backgrounds/difficulty6_image9.png","trial_type":"image-button-response","trial_index":56,"time_elapsed":98049,"internal_node_id":"0.0-2.0-0.54"},{"rt":1340,"stimulus":"images/Boat/With_Backgrounds/difficulty5_image0.png","response":0,"category":"Boat","background_difficulty":"5","image_path":"images/Boat/With_Backgrounds/difficulty5_image0.png","trial_type":"image-button-response","trial_index":57,"time_elapsed":99398,"internal_node_id":"0.0-2.0-0.55"},{"rt":2062,"stimulus":"images/Other/With_Backgrounds/difficulty8_image3.png","response":7,"category":"Other","background_difficulty":"8","image_path":"images/Other/With_Backgrounds/difficulty8_image3.png","trial_type":"image-button-response","trial_index":58,"time_elapsed":101472,"internal_node_id":"0.0-2.0-0.56"},{"rt":1288,"stimulus":"images/Car/With_Backgrounds/difficulty4_image3.png","response":2,"category":"Car","background_difficulty":"4","image_path":"images/Car/With_Backgrounds/difficulty4_image3.png","trial_type":"image-button-response","trial_index":59,"time_elapsed":102770,"internal_node_id":"0.0-2.0-0.57"},{"rt":1281,"stimulus":"images/Cat/With_Backgrounds/difficulty0_image3.png","response":3,"category":"Cat","background_difficulty":"0","image_path":"images/Cat/With_Backgrounds/difficulty0_image3.png","trial_type":"image-button-response","trial_index":60,"time_elapsed":104062,"internal_node_id":"0.0-2.0-0.58"},{"rt":1459,"stimulus":"images/Car/With_Backgrounds/difficulty2_image8.png","response":2,"category":"Car","background_difficulty":"2","image_path":"images/Car/With_Backgrounds/difficulty2_image8.png","trial_type":"image-button-response","trial_index":61,"time_elapsed":105543,"internal_node_id":"0.0-2.0-0.59"},{"rt":1235,"stimulus":"images/Boat/With_Backgrounds/difficulty7_image4.png","response":0,"category":"Boat","background_difficulty":"7","image_path":"images/Boat/With_Backgrounds/difficulty7_image4.png","trial_type":"image-button-response","trial_index":62,"time_elapsed":106784,"internal_node_id":"0.0-2.0-0.60"},{"rt":1669,"stimulus":"images/Car/With_Backgrounds/difficulty6_image2.png","response":2,"category":"Car","background_difficulty":"6","image_path":"images/Car/With_Backgrounds/difficulty6_image2.png","trial_type":"image-button-response","trial_index":63,"time_elapsed":108461,"internal_node_id":"0.0-2.0-0.61"},{"rt":1826,"stimulus":"images/Other/With_Backgrounds/difficulty5_image6.png","response":7,"category":"Other","background_difficulty":"5","image_path":"images/Other/With_Backgrounds/difficulty5_image6.png","trial_type":"image-button-response","trial_index":64,"time_elapsed":110295,"internal_node_id":"0.0-2.0-0.62"},{"rt":1845,"stimulus":"images/Broccoli/With_Backgrounds/difficulty5_image8.png","response":1,"category":"Broccoli","background_difficulty":"5","image_path":"images/Broccoli/With_Backgrounds/difficulty5_image8.png","trial_type":"image-button-response","trial_index":65,"time_elapsed":112161,"internal_node_id":"0.0-2.0-0.63"},{"rt":1284,"stimulus":"images/Human/With_Backgrounds/difficulty3_image1.png","response":5,"category":"Human","background_difficulty":"3","image_path":"images/Human/With_Backgrounds/difficulty3_image1.png","trial_type":"image-button-response","trial_index":66,"time_elapsed":113454,"internal_node_id":"0.0-2.0-0.64"},{"rt":1141,"stimulus":"images/Human/With_Backgrounds/difficulty0_image3.png","response":5,"category":"Human","background_difficulty":"0","image_path":"images/Human/With_Backgrounds/difficulty0_image3.png","trial_type":"image-button-response","trial_index":67,"time_elapsed":114602,"internal_node_id":"0.0-2.0-0.65"},{"rt":1378,"stimulus":"images/Boat/With_Backgrounds/difficulty3_image7.png","response":0,"category":"Boat","background_difficulty":"3","image_path":"images/Boat/With_Backgrounds/difficulty3_image7.png","trial_type":"image-button-response","trial_index":68,"time_elapsed":115985,"internal_node_id":"0.0-2.0-0.66"},{"rt":1293,"stimulus":"images/Human/With_Backgrounds/difficulty4_image0.png","response":5,"category":"Human","background_difficulty":"4","image_path":"images/Human/With_Backgrounds/difficulty4_image0.png","trial_type":"image-button-response","trial_index":69,"time_elapsed":117285,"internal_node_id":"0.0-2.0-0.67"},{"rt":1559,"stimulus":"images/Dog/With_Backgrounds/difficulty7_image4.png","response":4,"category":"Dog","background_difficulty":"7","image_path":"images/Dog/With_Backgrounds/difficulty7_image4.png","trial_type":"image-button-response","trial_index":70,"time_elapsed":118852,"internal_node_id":"0.0-2.0-0.68"},{"rt":2118,"stimulus":"images/Other/With_Backgrounds/difficulty3_image9.png","response":7,"category":"Other","background_difficulty":"3","image_path":"images/Other/With_Backgrounds/difficulty3_image9.png","trial_type":"image-button-response","trial_index":71,"time_elapsed":120983,"internal_node_id":"0.0-2.0-0.69"},{"rt":1318,"stimulus":"images/Cat/With_Backgrounds/difficulty4_image0.png","response":3,"category":"Cat","background_difficulty":"4","image_path":"images/Cat/With_Backgrounds/difficulty4_image0.png","trial_type":"image-button-response","trial_index":72,"time_elapsed":122308,"internal_node_id":"0.0-2.0-0.70"},{"rt":1252,"stimulus":"images/Tree/With_Backgrounds/difficulty6_image8.png","response":6,"category":"Tree","background_difficulty":"6","image_path":"images/Tree/With_Backgrounds/difficulty6_image8.png","trial_type":"image-button-response","trial_index":73,"time_elapsed":123567,"internal_node_id":"0.0-2.0-0.71"},{"rt":1474,"stimulus":["<h2>Press the button below to end experiment.</h2><p>Thank you for participating!</p>"],"response":0,"trial_type":"html-button-response","trial_index":74,"time_elapsed":125042,"internal_node_id":"0.0-3.0"}]