[{"success":true,"timeout":false,"failed_images":[],"failed_audio":[],"failed_video":[],"trial_type":"preload","trial_index":0,"time_elapsed":1087,"internal_node_id":"0.0-0.0"},{"rt":15310,"stimulus":["<h2>Noisy background image classification</h2><p>In this experiment you will briefly see images on top of colored squares of various sizes.</p><p>Your task is to report what each image is, selecting \"None of the Above\" if none of the given options are correct.</p> <p>The possible options are <strong>Boat</strong>, <strong>Broccoli</strong>, <strong>Car</strong>, <strong>Cat</strong>, <strong>Dog</strong>, <strong>Human</strong>, <strong>Tree</strong>, and <strong>None of the Above</strong>"],"response":0,"trial_type":"html-button-response","trial_index":1,"time_elapsed":16401,"internal_node_id":"0.0-1.0"},{"rt":5814,"stimulus":"images/Other/With_Backgrounds/difficulty5_image8.png","response":7,"category":"Other","background_difficulty":"5","image_path":"images/Other/With_Backgrounds/difficulty5_image8.png","trial_type":"image-button-response","trial_index":2,"time_elapsed":22281,"internal_node_id":"0.0-2.0-0.0"},{"rt":1399,"stimulus":"images/Boat/With_Backgrounds/difficulty7_image7.png","response":0,"category":"Boat","background_difficulty":"7","image_path":"images/Boat/With_Backgrounds/difficulty7_image7.png","trial_type":"image-button-response","trial_index":3,"time_elapsed":23684,"internal_node_id":"0.0-2.0-0.1"},{"rt":1456,"stimulus":"images/Dog/With_Backgrounds/difficulty0_image4.png","response":4,"category":"Dog","background_difficulty":"0","image_path":"images/Dog/With_Backgrounds/difficulty0_image4.png","trial_type":"image-button-response","trial_index":4,"time_elapsed":25144,"internal_node_id":"0.0-2.0-0.2"},{"rt":1656,"stimulus":"images/Cat/With_Backgrounds/difficulty7_image5.png","response":3,"category":"Cat","background_difficulty":"7","image_path":"images/Cat/With_Backgrounds/difficulty7_image5.png","trial_type":"image-button-response","trial_index":5,"time_elapsed":26806,"internal_node_id":"0.0-2.0-0.3"},{"rt":1528,"stimulus":"images/Boat/With_Backgrounds/difficulty8_image3.png","response":0,"category":"Boat","background_difficulty":"8","image_path":"images/Boat/With_Backgrounds/difficulty8_image3.png","trial_type":"image-button-response","trial_index":6,"time_elapsed":28338,"internal_node_id":"0.0-2.0-0.4"},{"rt":1015,"stimulus":"images/Broccoli/With_Backgrounds/difficulty4_image7.png","response":1,"category":"Broccoli","background_difficulty":"4","image_path":"images/Broccoli/With_Backgrounds/difficulty4_image7.png","trial_type":"image-button-response","trial_index":7,"time_elapsed":29356,"internal_node_id":"0.0-2.0-0.5"},{"rt":896,"stimulus":"images/Broccoli/With_Backgrounds/difficulty7_image3.png","response":1,"category":"Broccoli","background_difficulty":"7","image_path":"images/Broccoli/With_Backgrounds/difficulty7_image3.png","trial_type":"image-button-response","trial_index":8,"time_elapsed":30256,"internal_node_id":"0.0-2.0-0.6"},{"rt":1371,"stimulus":"images/Tree/With_Backgrounds/difficulty2_image6.png","response":6,"category":"Tree","background_difficulty":"2","image_path":"images/Tree/With_Backgrounds/difficulty2_image6.png","trial_type":"image-button-response","trial_index":9,"time_elapsed":31630,"internal_node_id":"0.0-2.0-0.7"},{"rt":1123,"stimulus":"images/Dog/With_Backgrounds/difficulty7_image1.png","response":4,"category":"Dog","background_difficulty":"7","image_path":"images/Dog/With_Backgrounds/difficulty7_image1.png","trial_type":"image-button-response","trial_index":10,"time_elapsed":32759,"internal_node_id":"0.0-2.0-0.8"},{"rt":1429,"stimulus":"images/Tree/With_Backgrounds/difficulty5_image2.png","response":6,"category":"Tree","background_difficulty":"5","image_path":"images/Tree/With_Backgrounds/difficulty5_image2.png","trial_type":"image-button-response","trial_index":11,"time_elapsed":34192,"internal_node_id":"0.0-2.0-0.9"},{"rt":1460,"stimulus":"images/Cat/With_Backgrounds/difficulty3_image0.png","response":3,"category":"Cat","background_difficulty":"3","image_path":"images/Cat/With_Backgrounds/difficulty3_image0.png","trial_type":"image-button-response","trial_index":12,"time_elapsed":35656,"internal_node_id":"0.0-2.0-0.10"},{"rt":1372,"stimulus":"images/Boat/With_Backgrounds/difficulty5_image5.png","response":0,"category":"Boat","background_difficulty":"5","image_path":"images/Boat/With_Backgrounds/difficulty5_image5.png","trial_type":"image-button-response","trial_index":13,"time_elapsed":37030,"internal_node_id":"0.0-2.0-0.11"},{"rt":1472,"stimulus":"images/Dog/With_Backgrounds/difficulty8_image8.png","response":4,"category":"Dog","background_difficulty":"8","image_path":"images/Dog/With_Backgrounds/difficulty8_image8.png","trial_type":"image-button-response","trial_index":14,"time_elapsed":38505,"internal_node_id":"0.0-2.0-0.12"},{"rt":1168,"stimulus":"images/Dog/With_Backgrounds/difficulty2_image5.png","response":4,"category":"Dog","background_difficulty":"2","image_path":"images/Dog/With_Backgrounds/difficulty2_image5.png","trial_type":"image-button-response","trial_index":15,"time_elapsed":39676,"internal_node_id":"0.0-2.0-0.13"},{"rt":1418,"stimulus":"images/Broccoli/With_Backgrounds/difficulty6_image5.png","response":1,"category":"Broccoli","background_difficulty":"6","image_path":"images/Broccoli/With_Backgrounds/difficulty6_image5.png","trial_type":"image-button-response","trial_index":16,"time_elapsed":41097,"internal_node_id":"0.0-2.0-0.14"},{"rt":1065,"stimulus":"images/Broccoli/With_Backgrounds/difficulty2_image4.png","response":1,"category":"Broccoli","background_difficulty":"2","image_path":"images/Broccoli/With_Backgrounds/difficulty2_image4.png","trial_type":"image-button-response","trial_index":17,"time_elapsed":42167,"internal_node_id":"0.0-2.0-0.15"},{"rt":1902,"stimulus":"images/Car/With_Backgrounds/difficulty4_image9.png","response":2,"category":"Car","background_difficulty":"4","image_path":"images/Car/With_Backgrounds/difficulty4_image9.png","trial_type":"image-button-response","trial_index":18,"time_elapsed":44071,"internal_node_id":"0.0-2.0-0.16"},{"rt":1776,"stimulus":"images/Human/With_Backgrounds/difficulty7_image2.png","response":5,"category":"Human","background_difficulty":"7","image_path":"images/Human/With_Backgrounds/difficulty7_image2.png","trial_type":"image-button-response","trial_index":19,"time_elapsed":45851,"internal_node_id":"0.0-2.0-0.17"},{"rt":1188,"stimulus":"images/Cat/With_Backgrounds/difficulty5_image2.png","response":3,"category":"Cat","background_difficulty":"5","image_path":"images/Cat/With_Backgrounds/difficulty5_image2.png","trial_type":"image-button-response","trial_index":20,"time_elapsed":47041,"internal_node_id":"0.0-2.0-0.18"},{"rt":1335,"stimulus":"images/Dog/With_Backgrounds/difficulty4_image6.png","response":4,"category":"Dog","background_difficulty":"4","image_path":"images/Dog/With_Backgrounds/difficulty4_image6.png","trial_type":"image-button-response","trial_index":21,"time_elapsed":48380,"internal_node_id":"0.0-2.0-0.19"},{"rt":1044,"stimulus":"images/Cat/With_Backgrounds/difficulty8_image8.png","response":3,"category":"Cat","background_difficulty":"8","image_path":"images/Cat/With_Backgrounds/difficulty8_image8.png","trial_type":"image-button-response","trial_index":22,"time_elapsed":49428,"internal_node_id":"0.0-2.0-0.20"},{"rt":1036,"stimulus":"images/Cat/With_Backgrounds/difficulty4_image6.png","response":3,"category":"Cat","background_difficulty":"4","image_path":"images/Cat/With_Backgrounds/difficulty4_image6.png","trial_type":"image-button-response","trial_index":23,"time_elapsed":50468,"internal_node_id":"0.0-2.0-0.21"},{"rt":1645,"stimulus":"images/Tree/With_Backgrounds/difficulty8_image3.png","response":6,"category":"Tree","background_difficulty":"8","image_path":"images/Tree/With_Backgrounds/difficulty8_image3.png","trial_type":"image-button-response","trial_index":24,"time_elapsed":52116,"internal_node_id":"0.0-2.0-0.22"},{"rt":1430,"stimulus":"images/Dog/With_Backgrounds/difficulty3_image0.png","response":4,"category":"Dog","background_difficulty":"3","image_path":"images/Dog/With_Backgrounds/difficulty3_image0.png","trial_type":"image-button-response","trial_index":25,"time_elapsed":53549,"internal_node_id":"0.0-2.0-0.23"},{"rt":990,"stimulus":"images/Dog/With_Backgrounds/difficulty6_image9.png","response":4,"category":"Dog","background_difficulty":"6","image_path":"images/Dog/With_Backgrounds/difficulty6_image9.png","trial_type":"image-button-response","trial_index":26,"time_elapsed":54543,"internal_node_id":"0.0-2.0-0.24"},{"rt":1403,"stimulus":"images/Tree/With_Backgrounds/difficulty7_image0.png","response":6,"category":"Tree","background_difficulty":"7","image_path":"images/Tree/With_Backgrounds/difficulty7_image0.png","trial_type":"image-button-response","trial_index":27,"time_elapsed":55949,"internal_node_id":"0.0-2.0-0.25"},{"rt":1508,"stimulus":"images/Cat/With_Backgrounds/difficulty0_image1.png","response":3,"category":"Cat","background_difficulty":"0","image_path":"images/Cat/With_Backgrounds/difficulty0_image1.png","trial_type":"image-button-response","trial_index":28,"time_elapsed":57460,"internal_node_id":"0.0-2.0-0.26"},{"rt":1676,"stimulus":"images/Human/With_Backgrounds/difficulty0_image9.png","response":5,"category":"Human","background_difficulty":"0","image_path":"images/Human/With_Backgrounds/difficulty0_image9.png","trial_type":"image-button-response","trial_index":29,"time_elapsed":59138,"internal_node_id":"0.0-2.0-0.27"},{"rt":1781,"stimulus":"images/Car/With_Backgrounds/difficulty6_image4.png","response":2,"category":"Car","background_difficulty":"6","image_path":"images/Car/With_Backgrounds/difficulty6_image4.png","trial_type":"image-button-response","trial_index":30,"time_elapsed":60921,"internal_node_id":"0.0-2.0-0.28"},{"rt":1792,"stimulus":"images/Broccoli/With_Backgrounds/difficulty3_image0.png","response":1,"category":"Broccoli","background_difficulty":"3","image_path":"images/Broccoli/With_Backgrounds/difficulty3_image0.png","trial_type":"image-button-response","trial_index":31,"time_elapsed":62717,"internal_node_id":"0.0-2.0-0.29"},{"rt":1510,"stimulus":"images/Human/With_Backgrounds/difficulty6_image7.png","response":5,"category":"Human","background_difficulty":"6","image_path":"images/Human/With_Backgrounds/difficulty6_image7.png","trial_type":"image-button-response","trial_index":32,"time_elapsed":64231,"internal_node_id":"0.0-2.0-0.30"},{"rt":1598,"stimulus":"images/Other/With_Backgrounds/difficulty2_image7.png","response":7,"category":"Other","background_difficulty":"2","image_path":"images/Other/With_Backgrounds/difficulty2_image7.png","trial_type":"image-button-response","trial_index":33,"time_elapsed":65835,"internal_node_id":"0.0-2.0-0.31"},{"rt":1375,"stimulus":"images/Other/With_Backgrounds/difficulty0_image4.png","response":7,"category":"Other","background_difficulty":"0","image_path":"images/Other/With_Backgrounds/difficulty0_image4.png","trial_type":"image-button-response","trial_index":34,"time_elapsed":67218,"internal_node_id":"0.0-2.0-0.32"},{"rt":1479,"stimulus":"images/Broccoli/With_Backgrounds/difficulty8_image9.png","response":1,"category":"Broccoli","background_difficulty":"8","image_path":"images/Broccoli/With_Backgrounds/difficulty8_image9.png","trial_type":"image-button-response","trial_index":35,"time_elapsed":68702,"internal_node_id":"0.0-2.0-0.33"},{"rt":997,"stimulus":"images/Broccoli/With_Backgrounds/difficulty5_image6.png","response":1,"category":"Broccoli","background_difficulty":"5","image_path":"images/Broccoli/With_Backgrounds/difficulty5_image6.png","trial_type":"image-button-response","trial_index":36,"time_elapsed":69702,"internal_node_id":"0.0-2.0-0.34"},{"rt":1501,"stimulus":"images/Dog/With_Backgrounds/difficulty1_image3.png","response":4,"category":"Dog","background_difficulty":"1","image_path":"images/Dog/With_Backgrounds/difficulty1_image3.png","trial_type":"image-button-response","trial_index":37,"time_elapsed":71213,"internal_node_id":"0.0-2.0-0.35"},{"rt":1514,"stimulus":"images/Broccoli/With_Backgrounds/difficulty1_image8.png","response":1,"category":"Broccoli","background_difficulty":"1","image_path":"images/Broccoli/With_Backgrounds/difficulty1_image8.png","trial_type":"image-button-response","trial_index":38,"time_elapsed":72733,"internal_node_id":"0.0-2.0-0.36"},{"rt":1327,"stimulus":"images/Boat/With_Backgrounds/difficulty4_image0.png","response":0,"category":"Boat","background_difficulty":"4","image_path":"images/Boat/With_Backgrounds/difficulty4_image0.png","trial_type":"image-button-response","trial_index":39,"time_elapsed":74072,"internal_node_id":"0.0-2.0-0.37"},{"rt":2039,"stimulus":"images/Car/With_Backgrounds/difficulty1_image3.png","response":2,"category":"Car","background_difficulty":"1","image_path":"images/Car/With_Backgrounds/difficulty1_image3.png","trial_type":"image-button-response","trial_index":40,"time_elapsed":76113,"internal_node_id":"0.0-2.0-0.38"},{"rt":1756,"stimulus":"images/Other/With_Backgrounds/difficulty3_image3.png","response":7,"category":"Other","background_difficulty":"3","image_path":"images/Other/With_Backgrounds/difficulty3_image3.png","trial_type":"image-button-response","trial_index":41,"time_elapsed":77880,"internal_node_id":"0.0-2.0-0.39"},{"rt":1824,"stimulus":"images/Human/With_Backgrounds/difficulty3_image4.png","response":5,"category":"Human","background_difficulty":"3","image_path":"images/Human/With_Backgrounds/difficulty3_image4.png","trial_type":"image-button-response","trial_index":42,"time_elapsed":79713,"internal_node_id":"0.0-2.0-0.40"},{"rt":2324,"stimulus":"images/Other/With_Backgrounds/difficulty6_image9.png","response":7,"category":"Other","background_difficulty":"6","image_path":"images/Other/With_Backgrounds/difficulty6_image9.png","trial_type":"image-button-response","trial_index":43,"time_elapsed":82040,"internal_node_id":"0.0-2.0-0.41"},{"rt":1716,"stimulus":"images/Car/With_Backgrounds/difficulty2_image1.png","response":2,"category":"Car","background_difficulty":"2","image_path":"images/Car/With_Backgrounds/difficulty2_image1.png","trial_type":"image-button-response","trial_index":44,"time_elapsed":83759,"internal_node_id":"0.0-2.0-0.42"},{"rt":2018,"stimulus":"images/Boat/With_Backgrounds/difficulty1_image1.png","response":0,"category":"Boat","background_difficulty":"1","image_path":"images/Boat/With_Backgrounds/difficulty1_image1.png","trial_type":"image-button-response","trial_index":45,"time_elapsed":85782,"internal_node_id":"0.0-2.0-0.43"},{"rt":1140,"stimulus":"images/Car/With_Backgrounds/difficulty7_image5.png","response":2,"category":"Car","background_difficulty":"7","image_path":"images/Car/With_Backgrounds/difficulty7_image5.png","trial_type":"image-button-response","trial_index":46,"time_elapsed":86929,"internal_node_id":"0.0-2.0-0.44"},{"rt":1638,"stimulus":"images/Human/With_Backgrounds/difficulty8_image0.png","response":5,"category":"Human","background_difficulty":"8","image_path":"images/Human/With_Backgrounds/difficulty8_image0.png","trial_type":"image-button-response","trial_index":47,"time_elapsed":88585,"internal_node_id":"0.0-2.0-0.45"},{"rt":2344,"stimulus":"images/Boat/With_Backgrounds/difficulty2_image6.png","response":0,"category":"Boat","background_difficulty":"2","image_path":"images/Boat/With_Backgrounds/difficulty2_image6.png","trial_type":"image-button-response","trial_index":48,"time_elapsed":90934,"internal_node_id":"0.0-2.0-0.46"},{"rt":2433,"stimulus":"images/Car/With_Backgrounds/difficulty8_image7.png","response":2,"category":"Car","background_difficulty":"8","image_path":"images/Car/With_Backgrounds/difficulty8_image7.png","trial_type":"image-button-response","trial_index":49,"time_elapsed":93393,"internal_node_id":"0.0-2.0-0.47"},{"rt":1330,"stimulus":"images/Human/With_Backgrounds/difficulty5_image6.png","response":5,"category":"Human","background_difficulty":"5","image_path":"images/Human/With_Backgrounds/difficulty5_image6.png","trial_type":"image-button-response","trial_index":50,"time_elapsed":94729,"internal_node_id":"0.0-2.0-0.48"},{"rt":1134,"stimulus":"images/Car/With_Backgrounds/difficulty3_image0.png","response":2,"category":"Car","background_difficulty":"3","image_path":"images/Car/With_Backgrounds/difficulty3_image0.png","trial_type":"image-button-response","trial_index":51,"time_elapsed":95867,"internal_node_id":"0.0-2.0-0.49"},{"rt":1866,"stimulus":"images/Other/With_Backgrounds/difficulty1_image1.png","response":7,"category":"Other","background_difficulty":"1","image_path":"images/Other/With_Backgrounds/difficulty1_image1.png","trial_type":"image-button-response","trial_index":52,"time_elapsed":97739,"internal_node_id":"0.0-2.0-0.50"},{"rt":1827,"stimulus":"images/Cat/With_Backgrounds/difficulty2_image7.png","response":3,"category":"Cat","background_difficulty":"2","image_path":"images/Cat/With_Backgrounds/difficulty2_image7.png","trial_type":"image-button-response","trial_index":53,"time_elapsed":99576,"internal_node_id":"0.0-2.0-0.51"},{"rt":1101,"stimulus":"images/Other/With_Backgrounds/difficulty7_image6.png","response":7,"category":"Other","background_difficulty":"7","image_path":"images/Other/With_Backgrounds/difficulty7_image6.png","trial_type":"image-button-response","trial_index":54,"time_elapsed":100684,"internal_node_id":"0.0-2.0-0.52"},{"rt":1126,"stimulus":"images/Other/With_Backgrounds/difficulty4_image0.png","response":7,"category":"Other","background_difficulty":"4","image_path":"images/Other/With_Backgrounds/difficulty4_image0.png","trial_type":"image-button-response","trial_index":55,"time_elapsed":101815,"internal_node_id":"0.0-2.0-0.53"},{"rt":1956,"stimulus":"images/Tree/With_Backgrounds/difficulty1_image9.png","response":6,"category":"Tree","background_difficulty":"1","image_path":"images/Tree/With_Backgrounds/difficulty1_image9.png","trial_type":"image-button-response","trial_index":56,"time_elapsed":103773,"internal_node_id":"0.0-2.0-0.54"},{"rt":1842,"stimulus":"images/Boat/With_Backgrounds/difficulty6_image4.png","response":0,"category":"Boat","background_difficulty":"6","image_path":"images/Boat/With_Backgrounds/difficulty6_image4.png","trial_type":"image-button-response","trial_index":57,"time_elapsed":105618,"internal_node_id":"0.0-2.0-0.55"},{"rt":1677,"stimulus":"images/Human/With_Backgrounds/difficulty2_image1.png","response":5,"category":"Human","background_difficulty":"2","image_path":"images/Human/With_Backgrounds/difficulty2_image1.png","trial_type":"image-button-response","trial_index":58,"time_elapsed":107300,"internal_node_id":"0.0-2.0-0.56"},{"rt":1301,"stimulus":"images/Human/With_Backgrounds/difficulty1_image8.png","response":5,"category":"Human","background_difficulty":"1","image_path":"images/Human/With_Backgrounds/difficulty1_image8.png","trial_type":"image-button-response","trial_index":59,"time_elapsed":108606,"internal_node_id":"0.0-2.0-0.57"},{"rt":1865,"stimulus":"images/Boat/With_Backgrounds/difficulty3_image9.png","response":0,"category":"Boat","background_difficulty":"3","image_path":"images/Boat/With_Backgrounds/difficulty3_image9.png","trial_type":"image-button-response","trial_index":60,"time_elapsed":110473,"internal_node_id":"0.0-2.0-0.58"},{"rt":906,"stimulus":"images/Boat/With_Backgrounds/difficulty0_image2.png","response":0,"category":"Boat","background_difficulty":"0","image_path":"images/Boat/With_Backgrounds/difficulty0_image2.png","trial_type":"image-button-response","trial_index":61,"time_elapsed":111383,"internal_node_id":"0.0-2.0-0.59"},{"rt":1225,"stimulus":"images/Car/With_Backgrounds/difficulty5_image6.png","response":2,"category":"Car","background_difficulty":"5","image_path":"images/Car/With_Backgrounds/difficulty5_image6.png","trial_type":"image-button-response","trial_index":62,"time_elapsed":112613,"internal_node_id":"0.0-2.0-0.60"},{"rt":1447,"stimulus":"images/Tree/With_Backgrounds/difficulty3_image4.png","response":6,"category":"Tree","background_difficulty":"3","image_path":"images/Tree/With_Backgrounds/difficulty3_image4.png","trial_type":"image-button-response","trial_index":63,"time_elapsed":114061,"internal_node_id":"0.0-2.0-0.61"},{"rt":1319,"stimulus":"images/Car/With_Backgrounds/difficulty0_image2.png","response":2,"category":"Car","background_difficulty":"0","image_path":"images/Car/With_Backgrounds/difficulty0_image2.png","trial_type":"image-button-response","trial_index":64,"time_elapsed":115383,"internal_node_id":"0.0-2.0-0.62"},{"rt":3129,"stimulus":"images/Cat/With_Backgrounds/difficulty1_image9.png","response":3,"category":"Cat","background_difficulty":"1","image_path":"images/Cat/With_Backgrounds/difficulty1_image9.png","trial_type":"image-button-response","trial_index":65,"time_elapsed":118518,"internal_node_id":"0.0-2.0-0.63"},{"rt":1561,"stimulus":"images/Human/With_Backgrounds/difficulty4_image3.png","response":5,"category":"Human","background_difficulty":"4","image_path":"images/Human/With_Backgrounds/difficulty4_image3.png","trial_type":"image-button-response","trial_index":66,"time_elapsed":120084,"internal_node_id":"0.0-2.0-0.64"},{"rt":1453,"stimulus":"images/Tree/With_Backgrounds/difficulty6_image8.png","response":6,"category":"Tree","background_difficulty":"6","image_path":"images/Tree/With_Backgrounds/difficulty6_image8.png","trial_type":"image-button-response","trial_index":67,"time_elapsed":121541,"internal_node_id":"0.0-2.0-0.65"},{"rt":910,"stimulus":"images/Tree/With_Backgrounds/difficulty4_image7.png","response":6,"category":"Tree","background_difficulty":"4","image_path":"images/Tree/With_Backgrounds/difficulty4_image7.png","trial_type":"image-button-response","trial_index":68,"time_elapsed":122455,"internal_node_id":"0.0-2.0-0.66"},{"rt":1550,"stimulus":"images/Cat/With_Backgrounds/difficulty6_image3.png","response":3,"category":"Cat","background_difficulty":"6","image_path":"images/Cat/With_Backgrounds/difficulty6_image3.png","trial_type":"image-button-response","trial_index":69,"time_elapsed":124007,"internal_node_id":"0.0-2.0-0.67"},{"rt":2056,"stimulus":"images/Broccoli/With_Backgrounds/difficulty0_image1.png","response":1,"category":"Broccoli","background_difficulty":"0","image_path":"images/Broccoli/With_Backgrounds/difficulty0_image1.png","trial_type":"image-button-response","trial_index":70,"time_elapsed":126070,"internal_node_id":"0.0-2.0-0.68"},{"rt":2893,"stimulus":"images/Dog/With_Backgrounds/difficulty5_image7.png","response":4,"category":"Dog","background_difficulty":"5","image_path":"images/Dog/With_Backgrounds/difficulty5_image7.png","trial_type":"image-button-response","trial_index":71,"time_elapsed":128966,"internal_node_id":"0.0-2.0-0.69"},{"rt":2520,"stimulus":"images/Other/With_Backgrounds/difficulty8_image5.png","response":7,"category":"Other","background_difficulty":"8","image_path":"images/Other/With_Backgrounds/difficulty8_image5.png","trial_type":"image-button-response","trial_index":72,"time_elapsed":131493,"internal_node_id":"0.0-2.0-0.70"},{"rt":2328,"stimulus":"images/Tree/With_Backgrounds/difficulty0_image1.png","response":6,"category":"Tree","background_difficulty":"0","image_path":"images/Tree/With_Backgrounds/difficulty0_image1.png","trial_type":"image-button-response","trial_index":73,"time_elapsed":133824,"internal_node_id":"0.0-2.0-0.71"},{"rt":7604,"stimulus":["<h2>Press the button below to end experiment.</h2><p>Thank you for participating!</p>"],"response":0,"trial_type":"html-button-response","trial_index":74,"time_elapsed":141430,"internal_node_id":"0.0-3.0"}]