[{"success":true,"timeout":false,"failed_images":[],"failed_audio":[],"failed_video":[],"trial_type":"preload","trial_index":0,"time_elapsed":2988,"internal_node_id":"0.0-0.0"},{"rt":10435,"stimulus":["<h2>Noisy background image classification</h2><p>In this experiment you will briefly see images on top of colored squares of various sizes.</p><p>Your task is to report what each image is, selecting \"None of the Above\" if none of the given options are correct.</p> <p>The possible options are <strong>Boat</strong>, <strong>Broccoli</strong>, <strong>Car</strong>, <strong>Cat</strong>, <strong>Dog</strong>, <strong>Human</strong>, <strong>Tree</strong>, and <strong>None of the Above</strong>"],"response":0,"trial_type":"html-button-response","trial_index":1,"time_elapsed":13428,"internal_node_id":"0.0-1.0"},{"rt":3078,"stimulus":"images/Human/With_Backgrounds/difficulty2_image5.png","response":5,"category":"Human","background_difficulty":"2","image_path":"images/Human/With_Backgrounds/difficulty2_image5.png","trial_type":"image-button-response","trial_index":2,"time_elapsed":16520,"internal_node_id":"0.0-2.0-0.0"},{"rt":1711,"stimulus":"images/Human/With_Backgrounds/difficulty3_image1.png","response":5,"category":"Human","background_difficulty":"3","image_path":"images/Human/With_Backgrounds/difficulty3_image1.png","trial_type":"image-button-response","trial_index":3,"time_elapsed":18243,"internal_node_id":"0.0-2.0-0.1"},{"rt":1963,"stimulus":"images/Cat/With_Backgrounds/difficulty4_image1.png","response":3,"category":"Cat","background_difficulty":"4","image_path":"images/Cat/With_Backgrounds/difficulty4_image1.png","trial_type":"image-button-response","trial_index":4,"time_elapsed":20217,"internal_node_id":"0.0-2.0-0.2"},{"rt":1609,"stimulus":"images/Cat/With_Backgrounds/difficulty0_image2.png","response":3,"category":"Cat","background_difficulty":"0","image_path":"images/Cat/With_Backgrounds/difficulty0_image2.png","trial_type":"image-button-response","trial_index":5,"time_elapsed":21834,"internal_node_id":"0.0-2.0-0.3"},{"rt":2023,"stimulus":"images/Tree/With_Backgrounds/difficulty0_image6.png","response":6,"category":"Tree","background_difficulty":"0","image_path":"images/Tree/With_Backgrounds/difficulty0_image6.png","trial_type":"image-button-response","trial_index":6,"time_elapsed":23870,"internal_node_id":"0.0-2.0-0.4"},{"rt":1884,"stimulus":"images/Broccoli/With_Backgrounds/difficulty8_image1.png","response":1,"category":"Broccoli","background_difficulty":"8","image_path":"images/Broccoli/With_Backgrounds/difficulty8_image1.png","trial_type":"image-button-response","trial_index":7,"time_elapsed":25767,"internal_node_id":"0.0-2.0-0.5"},{"rt":1705,"stimulus":"images/Car/With_Backgrounds/difficulty4_image1.png","response":2,"category":"Car","background_difficulty":"4","image_path":"images/Car/With_Backgrounds/difficulty4_image1.png","trial_type":"image-button-response","trial_index":8,"time_elapsed":27484,"internal_node_id":"0.0-2.0-0.6"},{"rt":1514,"stimulus":"images/Cat/With_Backgrounds/difficulty1_image5.png","response":3,"category":"Cat","background_difficulty":"1","image_path":"images/Cat/With_Backgrounds/difficulty1_image5.png","trial_type":"image-button-response","trial_index":9,"time_elapsed":29009,"internal_node_id":"0.0-2.0-0.7"},{"rt":1788,"stimulus":"images/Tree/With_Backgrounds/difficulty5_image8.png","response":6,"category":"Tree","background_difficulty":"5","image_path":"images/Tree/With_Backgrounds/difficulty5_image8.png","trial_type":"image-button-response","trial_index":10,"time_elapsed":30811,"internal_node_id":"0.0-2.0-0.8"},{"rt":1562,"stimulus":"images/Tree/With_Backgrounds/difficulty7_image4.png","response":6,"category":"Tree","background_difficulty":"7","image_path":"images/Tree/With_Backgrounds/difficulty7_image4.png","trial_type":"image-button-response","trial_index":11,"time_elapsed":32384,"internal_node_id":"0.0-2.0-0.9"},{"rt":1830,"stimulus":"images/Boat/With_Backgrounds/difficulty2_image2.png","response":0,"category":"Boat","background_difficulty":"2","image_path":"images/Boat/With_Backgrounds/difficulty2_image2.png","trial_type":"image-button-response","trial_index":12,"time_elapsed":34223,"internal_node_id":"0.0-2.0-0.10"},{"rt":1486,"stimulus":"images/Boat/With_Backgrounds/difficulty8_image0.png","response":0,"category":"Boat","background_difficulty":"8","image_path":"images/Boat/With_Backgrounds/difficulty8_image0.png","trial_type":"image-button-response","trial_index":13,"time_elapsed":35724,"internal_node_id":"0.0-2.0-0.11"},{"rt":1648,"stimulus":"images/Car/With_Backgrounds/difficulty3_image6.png","response":2,"category":"Car","background_difficulty":"3","image_path":"images/Car/With_Backgrounds/difficulty3_image6.png","trial_type":"image-button-response","trial_index":14,"time_elapsed":37382,"internal_node_id":"0.0-2.0-0.12"},{"rt":2858,"stimulus":"images/Other/With_Backgrounds/difficulty6_image7.png","response":7,"category":"Other","background_difficulty":"6","image_path":"images/Other/With_Backgrounds/difficulty6_image7.png","trial_type":"image-button-response","trial_index":15,"time_elapsed":40248,"internal_node_id":"0.0-2.0-0.13"},{"rt":1712,"stimulus":"images/Cat/With_Backgrounds/difficulty8_image9.png","response":3,"category":"Cat","background_difficulty":"8","image_path":"images/Cat/With_Backgrounds/difficulty8_image9.png","trial_type":"image-button-response","trial_index":16,"time_elapsed":41967,"internal_node_id":"0.0-2.0-0.14"},{"rt":1720,"stimulus":"images/Tree/With_Backgrounds/difficulty1_image5.png","response":6,"category":"Tree","background_difficulty":"1","image_path":"images/Tree/With_Backgrounds/difficulty1_image5.png","trial_type":"image-button-response","trial_index":17,"time_elapsed":43697,"internal_node_id":"0.0-2.0-0.15"},{"rt":1539,"stimulus":"images/Human/With_Backgrounds/difficulty0_image8.png","response":5,"category":"Human","background_difficulty":"0","image_path":"images/Human/With_Backgrounds/difficulty0_image8.png","trial_type":"image-button-response","trial_index":18,"time_elapsed":45249,"internal_node_id":"0.0-2.0-0.16"},{"rt":1522,"stimulus":"images/Broccoli/With_Backgrounds/difficulty0_image4.png","response":1,"category":"Broccoli","background_difficulty":"0","image_path":"images/Broccoli/With_Backgrounds/difficulty0_image4.png","trial_type":"image-button-response","trial_index":19,"time_elapsed":46783,"internal_node_id":"0.0-2.0-0.17"},{"rt":1579,"stimulus":"images/Dog/With_Backgrounds/difficulty7_image0.png","response":4,"category":"Dog","background_difficulty":"7","image_path":"images/Dog/With_Backgrounds/difficulty7_image0.png","trial_type":"image-button-response","trial_index":20,"time_elapsed":48374,"internal_node_id":"0.0-2.0-0.18"},{"rt":1713,"stimulus":"images/Tree/With_Backgrounds/difficulty3_image7.png","response":6,"category":"Tree","background_difficulty":"3","image_path":"images/Tree/With_Backgrounds/difficulty3_image7.png","trial_type":"image-button-response","trial_index":21,"time_elapsed":50098,"internal_node_id":"0.0-2.0-0.19"},{"rt":1975,"stimulus":"images/Car/With_Backgrounds/difficulty2_image3.png","response":2,"category":"Car","background_difficulty":"2","image_path":"images/Car/With_Backgrounds/difficulty2_image3.png","trial_type":"image-button-response","trial_index":22,"time_elapsed":52082,"internal_node_id":"0.0-2.0-0.20"},{"rt":1941,"stimulus":"images/Other/With_Backgrounds/difficulty5_image2.png","response":7,"category":"Other","background_difficulty":"5","image_path":"images/Other/With_Backgrounds/difficulty5_image2.png","trial_type":"image-button-response","trial_index":23,"time_elapsed":54030,"internal_node_id":"0.0-2.0-0.21"},{"rt":1682,"stimulus":"images/Car/With_Backgrounds/difficulty6_image2.png","response":2,"category":"Car","background_difficulty":"6","image_path":"images/Car/With_Backgrounds/difficulty6_image2.png","trial_type":"image-button-response","trial_index":24,"time_elapsed":55721,"internal_node_id":"0.0-2.0-0.22"},{"rt":1470,"stimulus":"images/Human/With_Backgrounds/difficulty4_image0.png","response":5,"category":"Human","background_difficulty":"4","image_path":"images/Human/With_Backgrounds/difficulty4_image0.png","trial_type":"image-button-response","trial_index":25,"time_elapsed":57197,"internal_node_id":"0.0-2.0-0.23"},{"rt":2168,"stimulus":"images/Dog/With_Backgrounds/difficulty8_image8.png","response":4,"category":"Dog","background_difficulty":"8","image_path":"images/Dog/With_Backgrounds/difficulty8_image8.png","trial_type":"image-button-response","trial_index":26,"time_elapsed":59374,"internal_node_id":"0.0-2.0-0.24"},{"rt":1605,"stimulus":"images/Car/With_Backgrounds/difficulty0_image4.png","response":2,"category":"Car","background_difficulty":"0","image_path":"images/Car/With_Backgrounds/difficulty0_image4.png","trial_type":"image-button-response","trial_index":27,"time_elapsed":60989,"internal_node_id":"0.0-2.0-0.25"},{"rt":1600,"stimulus":"images/Boat/With_Backgrounds/difficulty7_image1.png","response":0,"category":"Boat","background_difficulty":"7","image_path":"images/Boat/With_Backgrounds/difficulty7_image1.png","trial_type":"image-button-response","trial_index":28,"time_elapsed":62597,"internal_node_id":"0.0-2.0-0.26"},{"rt":1666,"stimulus":"images/Other/With_Backgrounds/difficulty3_image8.png","response":7,"category":"Other","background_difficulty":"3","image_path":"images/Other/With_Backgrounds/difficulty3_image8.png","trial_type":"image-button-response","trial_index":29,"time_elapsed":64271,"internal_node_id":"0.0-2.0-0.27"},{"rt":1713,"stimulus":"images/Dog/With_Backgrounds/difficulty0_image2.png","response":4,"category":"Dog","background_difficulty":"0","image_path":"images/Dog/With_Backgrounds/difficulty0_image2.png","trial_type":"image-button-response","trial_index":30,"time_elapsed":65990,"internal_node_id":"0.0-2.0-0.28"},{"rt":1510,"stimulus":"images/Boat/With_Backgrounds/difficulty1_image6.png","response":0,"category":"Boat","background_difficulty":"1","image_path":"images/Boat/With_Backgrounds/difficulty1_image6.png","trial_type":"image-button-response","trial_index":31,"time_elapsed":67509,"internal_node_id":"0.0-2.0-0.29"},{"rt":1528,"stimulus":"images/Human/With_Backgrounds/difficulty5_image3.png","response":5,"category":"Human","background_difficulty":"5","image_path":"images/Human/With_Backgrounds/difficulty5_image3.png","trial_type":"image-button-response","trial_index":32,"time_elapsed":69048,"internal_node_id":"0.0-2.0-0.30"},{"rt":1689,"stimulus":"images/Broccoli/With_Backgrounds/difficulty1_image8.png","response":1,"category":"Broccoli","background_difficulty":"1","image_path":"images/Broccoli/With_Backgrounds/difficulty1_image8.png","trial_type":"image-button-response","trial_index":33,"time_elapsed":70748,"internal_node_id":"0.0-2.0-0.31"},{"rt":1974,"stimulus":"images/Car/With_Backgrounds/difficulty5_image8.png","response":2,"category":"Car","background_difficulty":"5","image_path":"images/Car/With_Backgrounds/difficulty5_image8.png","trial_type":"image-button-response","trial_index":34,"time_elapsed":72731,"internal_node_id":"0.0-2.0-0.32"},{"rt":1460,"stimulus":"images/Broccoli/With_Backgrounds/difficulty3_image3.png","response":1,"category":"Broccoli","background_difficulty":"3","image_path":"images/Broccoli/With_Backgrounds/difficulty3_image3.png","trial_type":"image-button-response","trial_index":35,"time_elapsed":74203,"internal_node_id":"0.0-2.0-0.33"},{"rt":1703,"stimulus":"images/Cat/With_Backgrounds/difficulty5_image3.png","response":3,"category":"Cat","background_difficulty":"5","image_path":"images/Cat/With_Backgrounds/difficulty5_image3.png","trial_type":"image-button-response","trial_index":36,"time_elapsed":75915,"internal_node_id":"0.0-2.0-0.34"},{"rt":1441,"stimulus":"images/Human/With_Backgrounds/difficulty8_image9.png","response":5,"category":"Human","background_difficulty":"8","image_path":"images/Human/With_Backgrounds/difficulty8_image9.png","trial_type":"image-button-response","trial_index":37,"time_elapsed":77371,"internal_node_id":"0.0-2.0-0.35"},{"rt":1572,"stimulus":"images/Dog/With_Backgrounds/difficulty6_image3.png","response":4,"category":"Dog","background_difficulty":"6","image_path":"images/Dog/With_Backgrounds/difficulty6_image3.png","trial_type":"image-button-response","trial_index":38,"time_elapsed":78956,"internal_node_id":"0.0-2.0-0.36"},{"rt":1423,"stimulus":"images/Broccoli/With_Backgrounds/difficulty2_image6.png","response":1,"category":"Broccoli","background_difficulty":"2","image_path":"images/Broccoli/With_Backgrounds/difficulty2_image6.png","trial_type":"image-button-response","trial_index":39,"time_elapsed":80390,"internal_node_id":"0.0-2.0-0.37"},{"rt":1338,"stimulus":"images/Human/With_Backgrounds/difficulty1_image7.png","response":5,"category":"Human","background_difficulty":"1","image_path":"images/Human/With_Backgrounds/difficulty1_image7.png","trial_type":"image-button-response","trial_index":40,"time_elapsed":81742,"internal_node_id":"0.0-2.0-0.38"},{"rt":1851,"stimulus":"images/Car/With_Backgrounds/difficulty7_image7.png","response":2,"category":"Car","background_difficulty":"7","image_path":"images/Car/With_Backgrounds/difficulty7_image7.png","trial_type":"image-button-response","trial_index":41,"time_elapsed":83605,"internal_node_id":"0.0-2.0-0.39"},{"rt":1437,"stimulus":"images/Other/With_Backgrounds/difficulty1_image4.png","response":7,"category":"Other","background_difficulty":"1","image_path":"images/Other/With_Backgrounds/difficulty1_image4.png","trial_type":"image-button-response","trial_index":42,"time_elapsed":85055,"internal_node_id":"0.0-2.0-0.40"},{"rt":1490,"stimulus":"images/Cat/With_Backgrounds/difficulty3_image0.png","response":3,"category":"Cat","background_difficulty":"3","image_path":"images/Cat/With_Backgrounds/difficulty3_image0.png","trial_type":"image-button-response","trial_index":43,"time_elapsed":86555,"internal_node_id":"0.0-2.0-0.41"},{"rt":1264,"stimulus":"images/Dog/With_Backgrounds/difficulty1_image5.png","response":4,"category":"Dog","background_difficulty":"1","image_path":"images/Dog/With_Backgrounds/difficulty1_image5.png","trial_type":"image-button-response","trial_index":44,"time_elapsed":87830,"internal_node_id":"0.0-2.0-0.42"},{"rt":1354,"stimulus":"images/Cat/With_Backgrounds/difficulty7_image7.png","response":3,"category":"Cat","background_difficulty":"7","image_path":"images/Cat/With_Backgrounds/difficulty7_image7.png","trial_type":"image-button-response","trial_index":45,"time_elapsed":89197,"internal_node_id":"0.0-2.0-0.43"},{"rt":1379,"stimulus":"images/Broccoli/With_Backgrounds/difficulty7_image9.png","response":1,"category":"Broccoli","background_difficulty":"7","image_path":"images/Broccoli/With_Backgrounds/difficulty7_image9.png","trial_type":"image-button-response","trial_index":46,"time_elapsed":90587,"internal_node_id":"0.0-2.0-0.44"},{"rt":1516,"stimulus":"images/Car/With_Backgrounds/difficulty1_image0.png","response":2,"category":"Car","background_difficulty":"1","image_path":"images/Car/With_Backgrounds/difficulty1_image0.png","trial_type":"image-button-response","trial_index":47,"time_elapsed":92109,"internal_node_id":"0.0-2.0-0.45"},{"rt":1355,"stimulus":"images/Dog/With_Backgrounds/difficulty5_image7.png","response":4,"category":"Dog","background_difficulty":"5","image_path":"images/Dog/With_Backgrounds/difficulty5_image7.png","trial_type":"image-button-response","trial_index":48,"time_elapsed":93470,"internal_node_id":"0.0-2.0-0.46"},{"rt":1413,"stimulus":"images/Cat/With_Backgrounds/difficulty2_image8.png","response":3,"category":"Cat","background_difficulty":"2","image_path":"images/Cat/With_Backgrounds/difficulty2_image8.png","trial_type":"image-button-response","trial_index":49,"time_elapsed":94894,"internal_node_id":"0.0-2.0-0.47"},{"rt":1520,"stimulus":"images/Tree/With_Backgrounds/difficulty6_image1.png","response":6,"category":"Tree","background_difficulty":"6","image_path":"images/Tree/With_Backgrounds/difficulty6_image1.png","trial_type":"image-button-response","trial_index":50,"time_elapsed":96421,"internal_node_id":"0.0-2.0-0.48"},{"rt":1523,"stimulus":"images/Boat/With_Backgrounds/difficulty4_image7.png","response":0,"category":"Boat","background_difficulty":"4","image_path":"images/Boat/With_Backgrounds/difficulty4_image7.png","trial_type":"image-button-response","trial_index":51,"time_elapsed":97953,"internal_node_id":"0.0-2.0-0.49"},{"rt":1346,"stimulus":"images/Broccoli/With_Backgrounds/difficulty4_image0.png","response":1,"category":"Broccoli","background_difficulty":"4","image_path":"images/Broccoli/With_Backgrounds/difficulty4_image0.png","trial_type":"image-button-response","trial_index":52,"time_elapsed":99310,"internal_node_id":"0.0-2.0-0.50"},{"rt":1413,"stimulus":"images/Cat/With_Backgrounds/difficulty6_image6.png","response":3,"category":"Cat","background_difficulty":"6","image_path":"images/Cat/With_Backgrounds/difficulty6_image6.png","trial_type":"image-button-response","trial_index":53,"time_elapsed":100729,"internal_node_id":"0.0-2.0-0.51"},{"rt":1395,"stimulus":"images/Other/With_Backgrounds/difficulty8_image9.png","response":7,"category":"Other","background_difficulty":"8","image_path":"images/Other/With_Backgrounds/difficulty8_image9.png","trial_type":"image-button-response","trial_index":54,"time_elapsed":102137,"internal_node_id":"0.0-2.0-0.52"},{"rt":1335,"stimulus":"images/Human/With_Backgrounds/difficulty7_image4.png","response":5,"category":"Human","background_difficulty":"7","image_path":"images/Human/With_Backgrounds/difficulty7_image4.png","trial_type":"image-button-response","trial_index":55,"time_elapsed":103487,"internal_node_id":"0.0-2.0-0.53"},{"rt":1307,"stimulus":"images/Boat/With_Backgrounds/difficulty5_image3.png","response":0,"category":"Boat","background_difficulty":"5","image_path":"images/Boat/With_Backgrounds/difficulty5_image3.png","trial_type":"image-button-response","trial_index":56,"time_elapsed":104805,"internal_node_id":"0.0-2.0-0.54"},{"rt":1747,"stimulus":"images/Car/With_Backgrounds/difficulty8_image5.png","response":2,"category":"Car","background_difficulty":"8","image_path":"images/Car/With_Backgrounds/difficulty8_image5.png","trial_type":"image-button-response","trial_index":57,"time_elapsed":106561,"internal_node_id":"0.0-2.0-0.55"},{"rt":1388,"stimulus":"images/Broccoli/With_Backgrounds/difficulty6_image5.png","response":1,"category":"Broccoli","background_difficulty":"6","image_path":"images/Broccoli/With_Backgrounds/difficulty6_image5.png","trial_type":"image-button-response","trial_index":58,"time_elapsed":107961,"internal_node_id":"0.0-2.0-0.56"},{"rt":1431,"stimulus":"images/Tree/With_Backgrounds/difficulty4_image9.png","response":6,"category":"Tree","background_difficulty":"4","image_path":"images/Tree/With_Backgrounds/difficulty4_image9.png","trial_type":"image-button-response","trial_index":59,"time_elapsed":109403,"internal_node_id":"0.0-2.0-0.57"},{"rt":1324,"stimulus":"images/Human/With_Backgrounds/difficulty6_image2.png","response":5,"category":"Human","background_difficulty":"6","image_path":"images/Human/With_Backgrounds/difficulty6_image2.png","trial_type":"image-button-response","trial_index":60,"time_elapsed":110739,"internal_node_id":"0.0-2.0-0.58"},{"rt":1427,"stimulus":"images/Other/With_Backgrounds/difficulty0_image6.png","response":7,"category":"Other","background_difficulty":"0","image_path":"images/Other/With_Backgrounds/difficulty0_image6.png","trial_type":"image-button-response","trial_index":61,"time_elapsed":112178,"internal_node_id":"0.0-2.0-0.59"},{"rt":1267,"stimulus":"images/Other/With_Backgrounds/difficulty7_image3.png","response":7,"category":"Other","background_difficulty":"7","image_path":"images/Other/With_Backgrounds/difficulty7_image3.png","trial_type":"image-button-response","trial_index":62,"time_elapsed":113458,"internal_node_id":"0.0-2.0-0.60"},{"rt":1320,"stimulus":"images/Dog/With_Backgrounds/difficulty3_image1.png","response":4,"category":"Dog","background_difficulty":"3","image_path":"images/Dog/With_Backgrounds/difficulty3_image1.png","trial_type":"image-button-response","trial_index":63,"time_elapsed":114785,"internal_node_id":"0.0-2.0-0.61"},{"rt":1232,"stimulus":"images/Dog/With_Backgrounds/difficulty2_image4.png","response":4,"category":"Dog","background_difficulty":"2","image_path":"images/Dog/With_Backgrounds/difficulty2_image4.png","trial_type":"image-button-response","trial_index":64,"time_elapsed":116028,"internal_node_id":"0.0-2.0-0.62"},{"rt":1485,"stimulus":"images/Tree/With_Backgrounds/difficulty8_image2.png","response":6,"category":"Tree","background_difficulty":"8","image_path":"images/Tree/With_Backgrounds/difficulty8_image2.png","trial_type":"image-button-response","trial_index":65,"time_elapsed":117527,"internal_node_id":"0.0-2.0-0.63"},{"rt":1863,"stimulus":"images/Other/With_Backgrounds/difficulty4_image0.png","response":7,"category":"Other","background_difficulty":"4","image_path":"images/Other/With_Backgrounds/difficulty4_image0.png","trial_type":"image-button-response","trial_index":66,"time_elapsed":119402,"internal_node_id":"0.0-2.0-0.64"},{"rt":1290,"stimulus":"images/Tree/With_Backgrounds/difficulty2_image0.png","response":6,"category":"Tree","background_difficulty":"2","image_path":"images/Tree/With_Backgrounds/difficulty2_image0.png","trial_type":"image-button-response","trial_index":67,"time_elapsed":120709,"internal_node_id":"0.0-2.0-0.65"},{"rt":1367,"stimulus":"images/Other/With_Backgrounds/difficulty2_image1.png","response":7,"category":"Other","background_difficulty":"2","image_path":"images/Other/With_Backgrounds/difficulty2_image1.png","trial_type":"image-button-response","trial_index":68,"time_elapsed":122086,"internal_node_id":"0.0-2.0-0.66"},{"rt":1430,"stimulus":"images/Boat/With_Backgrounds/difficulty6_image8.png","response":0,"category":"Boat","background_difficulty":"6","image_path":"images/Boat/With_Backgrounds/difficulty6_image8.png","trial_type":"image-button-response","trial_index":69,"time_elapsed":123530,"internal_node_id":"0.0-2.0-0.67"},{"rt":1337,"stimulus":"images/Boat/With_Backgrounds/difficulty0_image9.png","response":0,"category":"Boat","background_difficulty":"0","image_path":"images/Boat/With_Backgrounds/difficulty0_image9.png","trial_type":"image-button-response","trial_index":70,"time_elapsed":124878,"internal_node_id":"0.0-2.0-0.68"},{"rt":1298,"stimulus":"images/Dog/With_Backgrounds/difficulty4_image6.png","response":4,"category":"Dog","background_difficulty":"4","image_path":"images/Dog/With_Backgrounds/difficulty4_image6.png","trial_type":"image-button-response","trial_index":71,"time_elapsed":126186,"internal_node_id":"0.0-2.0-0.69"},{"rt":1324,"stimulus":"images/Broccoli/With_Backgrounds/difficulty5_image2.png","response":1,"category":"Broccoli","background_difficulty":"5","image_path":"images/Broccoli/With_Backgrounds/difficulty5_image2.png","trial_type":"image-button-response","trial_index":72,"time_elapsed":127526,"internal_node_id":"0.0-2.0-0.70"},{"rt":1390,"stimulus":"images/Boat/With_Backgrounds/difficulty3_image5.png","response":0,"category":"Boat","background_difficulty":"3","image_path":"images/Boat/With_Backgrounds/difficulty3_image5.png","trial_type":"image-button-response","trial_index":73,"time_elapsed":128927,"internal_node_id":"0.0-2.0-0.71"},{"rt":2872,"stimulus":["<h2>Press the button below to end experiment.</h2><p>Thank you for participating!</p>"],"response":0,"trial_type":"html-button-response","trial_index":74,"time_elapsed":131802,"internal_node_id":"0.0-3.0"}]