[{"success":true,"timeout":false,"failed_images":[],"failed_audio":[],"failed_video":[],"trial_type":"preload","trial_index":0,"time_elapsed":2868,"internal_node_id":"0.0-0.0"},{"rt":4057,"stimulus":["<h2>Noisy background image classification</h2><p>In this experiment you will briefly see images on top of colored squares of various sizes.</p><p>Your task is to report what each image is, selecting \"None of the Above\" if none of the given options are correct.</p> <p>The possible options are <strong>Boat</strong>, <strong>Broccoli</strong>, <strong>Car</strong>, <strong>Cat</strong>, <strong>Dog</strong>, <strong>Human</strong>, <strong>Tree</strong>, and <strong>None of the Above</strong>"],"response":0,"trial_type":"html-button-response","trial_index":1,"time_elapsed":6926,"internal_node_id":"0.0-1.0"},{"rt":3596,"stimulus":"images/Car/With_Backgrounds/difficulty4_image5.png","response":2,"category":"Car","background_difficulty":"4","image_path":"images/Car/With_Backgrounds/difficulty4_image5.png","trial_type":"image-button-response","trial_index":2,"time_elapsed":10536,"internal_node_id":"0.0-2.0-0.0"},{"rt":1796,"stimulus":"images/Boat/With_Backgrounds/difficulty4_image1.png","response":0,"category":"Boat","background_difficulty":"4","image_path":"images/Boat/With_Backgrounds/difficulty4_image1.png","trial_type":"image-button-response","trial_index":3,"time_elapsed":12334,"internal_node_id":"0.0-2.0-0.1"},{"rt":3750,"stimulus":"images/Boat/With_Backgrounds/difficulty3_image6.png","response":7,"category":"Boat","background_difficulty":"3","image_path":"images/Boat/With_Backgrounds/difficulty3_image6.png","trial_type":"image-button-response","trial_index":4,"time_elapsed":16086,"internal_node_id":"0.0-2.0-0.2"},{"rt":2462,"stimulus":"images/Other/With_Backgrounds/difficulty5_image0.png","response":7,"category":"Other","background_difficulty":"5","image_path":"images/Other/With_Backgrounds/difficulty5_image0.png","trial_type":"image-button-response","trial_index":5,"time_elapsed":18550,"internal_node_id":"0.0-2.0-0.3"},{"rt":1455,"stimulus":"images/Dog/With_Backgrounds/difficulty5_image1.png","response":4,"category":"Dog","background_difficulty":"5","image_path":"images/Dog/With_Backgrounds/difficulty5_image1.png","trial_type":"image-button-response","trial_index":6,"time_elapsed":20006,"internal_node_id":"0.0-2.0-0.4"},{"rt":1574,"stimulus":"images/Broccoli/With_Backgrounds/difficulty7_image1.png","response":1,"category":"Broccoli","background_difficulty":"7","image_path":"images/Broccoli/With_Backgrounds/difficulty7_image1.png","trial_type":"image-button-response","trial_index":7,"time_elapsed":21582,"internal_node_id":"0.0-2.0-0.5"},{"rt":1478,"stimulus":"images/Human/With_Backgrounds/difficulty8_image9.png","response":5,"category":"Human","background_difficulty":"8","image_path":"images/Human/With_Backgrounds/difficulty8_image9.png","trial_type":"image-button-response","trial_index":8,"time_elapsed":23062,"internal_node_id":"0.0-2.0-0.6"},{"rt":1679,"stimulus":"images/Boat/With_Backgrounds/difficulty5_image0.png","response":0,"category":"Boat","background_difficulty":"5","image_path":"images/Boat/With_Backgrounds/difficulty5_image0.png","trial_type":"image-button-response","trial_index":9,"time_elapsed":24742,"internal_node_id":"0.0-2.0-0.7"},{"rt":1390,"stimulus":"images/Tree/With_Backgrounds/difficulty7_image3.png","response":6,"category":"Tree","background_difficulty":"7","image_path":"images/Tree/With_Backgrounds/difficulty7_image3.png","trial_type":"image-button-response","trial_index":10,"time_elapsed":26134,"internal_node_id":"0.0-2.0-0.8"},{"rt":1918,"stimulus":"images/Other/With_Backgrounds/difficulty4_image6.png","response":7,"category":"Other","background_difficulty":"4","image_path":"images/Other/With_Backgrounds/difficulty4_image6.png","trial_type":"image-button-response","trial_index":11,"time_elapsed":28054,"internal_node_id":"0.0-2.0-0.9"},{"rt":1702,"stimulus":"images/Car/With_Backgrounds/difficulty0_image9.png","response":2,"category":"Car","background_difficulty":"0","image_path":"images/Car/With_Backgrounds/difficulty0_image9.png","trial_type":"image-button-response","trial_index":12,"time_elapsed":29758,"internal_node_id":"0.0-2.0-0.10"},{"rt":1518,"stimulus":"images/Broccoli/With_Backgrounds/difficulty0_image7.png","response":1,"category":"Broccoli","background_difficulty":"0","image_path":"images/Broccoli/With_Backgrounds/difficulty0_image7.png","trial_type":"image-button-response","trial_index":13,"time_elapsed":31278,"internal_node_id":"0.0-2.0-0.11"},{"rt":1406,"stimulus":"images/Dog/With_Backgrounds/difficulty0_image7.png","response":4,"category":"Dog","background_difficulty":"0","image_path":"images/Dog/With_Backgrounds/difficulty0_image7.png","trial_type":"image-button-response","trial_index":14,"time_elapsed":32686,"internal_node_id":"0.0-2.0-0.12"},{"rt":1607,"stimulus":"images/Other/With_Backgrounds/difficulty6_image8.png","response":7,"category":"Other","background_difficulty":"6","image_path":"images/Other/With_Backgrounds/difficulty6_image8.png","trial_type":"image-button-response","trial_index":15,"time_elapsed":34294,"internal_node_id":"0.0-2.0-0.13"},{"rt":1527,"stimulus":"images/Car/With_Backgrounds/difficulty1_image2.png","response":2,"category":"Car","background_difficulty":"1","image_path":"images/Car/With_Backgrounds/difficulty1_image2.png","trial_type":"image-button-response","trial_index":16,"time_elapsed":35822,"internal_node_id":"0.0-2.0-0.14"},{"rt":1327,"stimulus":"images/Tree/With_Backgrounds/difficulty1_image6.png","response":6,"category":"Tree","background_difficulty":"1","image_path":"images/Tree/With_Backgrounds/difficulty1_image6.png","trial_type":"image-button-response","trial_index":17,"time_elapsed":37151,"internal_node_id":"0.0-2.0-0.15"},{"rt":1277,"stimulus":"images/Boat/With_Backgrounds/difficulty8_image4.png","response":0,"category":"Boat","background_difficulty":"8","image_path":"images/Boat/With_Backgrounds/difficulty8_image4.png","trial_type":"image-button-response","trial_index":18,"time_elapsed":38430,"internal_node_id":"0.0-2.0-0.16"},{"rt":1135,"stimulus":"images/Dog/With_Backgrounds/difficulty7_image2.png","response":4,"category":"Dog","background_difficulty":"7","image_path":"images/Dog/With_Backgrounds/difficulty7_image2.png","trial_type":"image-button-response","trial_index":19,"time_elapsed":39566,"internal_node_id":"0.0-2.0-0.17"},{"rt":1190,"stimulus":"images/Human/With_Backgrounds/difficulty6_image1.png","response":5,"category":"Human","background_difficulty":"6","image_path":"images/Human/With_Backgrounds/difficulty6_image1.png","trial_type":"image-button-response","trial_index":20,"time_elapsed":40758,"internal_node_id":"0.0-2.0-0.18"},{"rt":4487,"stimulus":"images/Other/With_Backgrounds/difficulty7_image1.png","response":7,"category":"Other","background_difficulty":"7","image_path":"images/Other/With_Backgrounds/difficulty7_image1.png","trial_type":"image-button-response","trial_index":21,"time_elapsed":45246,"internal_node_id":"0.0-2.0-0.19"},{"rt":223,"stimulus":"images/Cat/With_Backgrounds/difficulty5_image0.png","response":7,"category":"Cat","background_difficulty":"5","image_path":"images/Cat/With_Backgrounds/difficulty5_image0.png","trial_type":"image-button-response","trial_index":22,"time_elapsed":45470,"internal_node_id":"0.0-2.0-0.20"},{"rt":327,"stimulus":"images/Cat/With_Backgrounds/difficulty4_image3.png","response":7,"category":"Cat","background_difficulty":"4","image_path":"images/Cat/With_Backgrounds/difficulty4_image3.png","trial_type":"image-button-response","trial_index":23,"time_elapsed":45798,"internal_node_id":"0.0-2.0-0.21"},{"rt":182,"stimulus":"images/Human/With_Backgrounds/difficulty4_image4.png","response":7,"category":"Human","background_difficulty":"4","image_path":"images/Human/With_Backgrounds/difficulty4_image4.png","trial_type":"image-button-response","trial_index":24,"time_elapsed":45982,"internal_node_id":"0.0-2.0-0.22"},{"rt":231,"stimulus":"images/Car/With_Backgrounds/difficulty7_image3.png","response":7,"category":"Car","background_difficulty":"7","image_path":"images/Car/With_Backgrounds/difficulty7_image3.png","trial_type":"image-button-response","trial_index":25,"time_elapsed":46214,"internal_node_id":"0.0-2.0-0.23"},{"rt":183,"stimulus":"images/Tree/With_Backgrounds/difficulty4_image5.png","response":7,"category":"Tree","background_difficulty":"4","image_path":"images/Tree/With_Backgrounds/difficulty4_image5.png","trial_type":"image-button-response","trial_index":26,"time_elapsed":46398,"internal_node_id":"0.0-2.0-0.24"},{"rt":166,"stimulus":"images/Car/With_Backgrounds/difficulty3_image4.png","response":7,"category":"Car","background_difficulty":"3","image_path":"images/Car/With_Backgrounds/difficulty3_image4.png","trial_type":"image-button-response","trial_index":27,"time_elapsed":46566,"internal_node_id":"0.0-2.0-0.25"},{"rt":166,"stimulus":"images/Car/With_Backgrounds/difficulty8_image1.png","response":7,"category":"Car","background_difficulty":"8","image_path":"images/Car/With_Backgrounds/difficulty8_image1.png","trial_type":"image-button-response","trial_index":28,"time_elapsed":46734,"internal_node_id":"0.0-2.0-0.26"},{"rt":199,"stimulus":"images/Dog/With_Backgrounds/difficulty6_image9.png","response":7,"category":"Dog","background_difficulty":"6","image_path":"images/Dog/With_Backgrounds/difficulty6_image9.png","trial_type":"image-button-response","trial_index":29,"time_elapsed":46934,"internal_node_id":"0.0-2.0-0.27"},{"rt":183,"stimulus":"images/Tree/With_Backgrounds/difficulty2_image8.png","response":7,"category":"Tree","background_difficulty":"2","image_path":"images/Tree/With_Backgrounds/difficulty2_image8.png","trial_type":"image-button-response","trial_index":30,"time_elapsed":47118,"internal_node_id":"0.0-2.0-0.28"},{"rt":190,"stimulus":"images/Human/With_Backgrounds/difficulty3_image6.png","response":7,"category":"Human","background_difficulty":"3","image_path":"images/Human/With_Backgrounds/difficulty3_image6.png","trial_type":"image-button-response","trial_index":31,"time_elapsed":47310,"internal_node_id":"0.0-2.0-0.29"},{"rt":175,"stimulus":"images/Cat/With_Backgrounds/difficulty1_image7.png","response":7,"category":"Cat","background_difficulty":"1","image_path":"images/Cat/With_Backgrounds/difficulty1_image7.png","trial_type":"image-button-response","trial_index":32,"time_elapsed":47487,"internal_node_id":"0.0-2.0-0.30"},{"rt":173,"stimulus":"images/Cat/With_Backgrounds/difficulty3_image1.png","response":7,"category":"Cat","background_difficulty":"3","image_path":"images/Cat/With_Backgrounds/difficulty3_image1.png","trial_type":"image-button-response","trial_index":33,"time_elapsed":47662,"internal_node_id":"0.0-2.0-0.31"},{"rt":183,"stimulus":"images/Boat/With_Backgrounds/difficulty7_image9.png","response":7,"category":"Boat","background_difficulty":"7","image_path":"images/Boat/With_Backgrounds/difficulty7_image9.png","trial_type":"image-button-response","trial_index":34,"time_elapsed":47846,"internal_node_id":"0.0-2.0-0.32"},{"rt":175,"stimulus":"images/Boat/With_Backgrounds/difficulty1_image2.png","response":7,"category":"Boat","background_difficulty":"1","image_path":"images/Boat/With_Backgrounds/difficulty1_image2.png","trial_type":"image-button-response","trial_index":35,"time_elapsed":48022,"internal_node_id":"0.0-2.0-0.33"},{"rt":182,"stimulus":"images/Dog/With_Backgrounds/difficulty8_image4.png","response":7,"category":"Dog","background_difficulty":"8","image_path":"images/Dog/With_Backgrounds/difficulty8_image4.png","trial_type":"image-button-response","trial_index":36,"time_elapsed":48206,"internal_node_id":"0.0-2.0-0.34"},{"rt":183,"stimulus":"images/Other/With_Backgrounds/difficulty2_image4.png","response":7,"category":"Other","background_difficulty":"2","image_path":"images/Other/With_Backgrounds/difficulty2_image4.png","trial_type":"image-button-response","trial_index":37,"time_elapsed":48390,"internal_node_id":"0.0-2.0-0.35"},{"rt":166,"stimulus":"images/Tree/With_Backgrounds/difficulty6_image7.png","response":7,"category":"Tree","background_difficulty":"6","image_path":"images/Tree/With_Backgrounds/difficulty6_image7.png","trial_type":"image-button-response","trial_index":38,"time_elapsed":48558,"internal_node_id":"0.0-2.0-0.36"},{"rt":174,"stimulus":"images/Boat/With_Backgrounds/difficulty2_image5.png","response":7,"category":"Boat","background_difficulty":"2","image_path":"images/Boat/With_Backgrounds/difficulty2_image5.png","trial_type":"image-button-response","trial_index":39,"time_elapsed":48734,"internal_node_id":"0.0-2.0-0.37"},{"rt":151,"stimulus":"images/Other/With_Backgrounds/difficulty8_image3.png","response":7,"category":"Other","background_difficulty":"8","image_path":"images/Other/With_Backgrounds/difficulty8_image3.png","trial_type":"image-button-response","trial_index":40,"time_elapsed":48886,"internal_node_id":"0.0-2.0-0.38"},{"rt":167,"stimulus":"images/Boat/With_Backgrounds/difficulty0_image8.png","response":7,"category":"Boat","background_difficulty":"0","image_path":"images/Boat/With_Backgrounds/difficulty0_image8.png","trial_type":"image-button-response","trial_index":41,"time_elapsed":49054,"internal_node_id":"0.0-2.0-0.39"},{"rt":166,"stimulus":"images/Human/With_Backgrounds/difficulty2_image2.png","response":7,"category":"Human","background_difficulty":"2","image_path":"images/Human/With_Backgrounds/difficulty2_image2.png","trial_type":"image-button-response","trial_index":42,"time_elapsed":49222,"internal_node_id":"0.0-2.0-0.40"},{"rt":183,"stimulus":"images/Tree/With_Backgrounds/difficulty3_image4.png","response":7,"category":"Tree","background_difficulty":"3","image_path":"images/Tree/With_Backgrounds/difficulty3_image4.png","trial_type":"image-button-response","trial_index":43,"time_elapsed":49406,"internal_node_id":"0.0-2.0-0.41"},{"rt":182,"stimulus":"images/Boat/With_Backgrounds/difficulty6_image3.png","response":7,"category":"Boat","background_difficulty":"6","image_path":"images/Boat/With_Backgrounds/difficulty6_image3.png","trial_type":"image-button-response","trial_index":44,"time_elapsed":49590,"internal_node_id":"0.0-2.0-0.42"},{"rt":150,"stimulus":"images/Human/With_Backgrounds/difficulty7_image7.png","response":7,"category":"Human","background_difficulty":"7","image_path":"images/Human/With_Backgrounds/difficulty7_image7.png","trial_type":"image-button-response","trial_index":45,"time_elapsed":49742,"internal_node_id":"0.0-2.0-0.43"},{"rt":207,"stimulus":"images/Human/With_Backgrounds/difficulty0_image0.png","response":7,"category":"Human","background_difficulty":"0","image_path":"images/Human/With_Backgrounds/difficulty0_image0.png","trial_type":"image-button-response","trial_index":46,"time_elapsed":49950,"internal_node_id":"0.0-2.0-0.44"},{"rt":174,"stimulus":"images/Broccoli/With_Backgrounds/difficulty2_image4.png","response":7,"category":"Broccoli","background_difficulty":"2","image_path":"images/Broccoli/With_Backgrounds/difficulty2_image4.png","trial_type":"image-button-response","trial_index":47,"time_elapsed":50126,"internal_node_id":"0.0-2.0-0.45"},{"rt":182,"stimulus":"images/Dog/With_Backgrounds/difficulty1_image0.png","response":7,"category":"Dog","background_difficulty":"1","image_path":"images/Dog/With_Backgrounds/difficulty1_image0.png","trial_type":"image-button-response","trial_index":48,"time_elapsed":50310,"internal_node_id":"0.0-2.0-0.46"},{"rt":166,"stimulus":"images/Cat/With_Backgrounds/difficulty0_image6.png","response":7,"category":"Cat","background_difficulty":"0","image_path":"images/Cat/With_Backgrounds/difficulty0_image6.png","trial_type":"image-button-response","trial_index":49,"time_elapsed":50478,"internal_node_id":"0.0-2.0-0.47"},{"rt":398,"stimulus":"images/Tree/With_Backgrounds/difficulty5_image0.png","response":7,"category":"Tree","background_difficulty":"5","image_path":"images/Tree/With_Backgrounds/difficulty5_image0.png","trial_type":"image-button-response","trial_index":50,"time_elapsed":50878,"internal_node_id":"0.0-2.0-0.48"},{"rt":159,"stimulus":"images/Broccoli/With_Backgrounds/difficulty3_image8.png","response":7,"category":"Broccoli","background_difficulty":"3","image_path":"images/Broccoli/With_Backgrounds/difficulty3_image8.png","trial_type":"image-button-response","trial_index":51,"time_elapsed":51038,"internal_node_id":"0.0-2.0-0.49"},{"rt":174,"stimulus":"images/Other/With_Backgrounds/difficulty0_image7.png","response":7,"category":"Other","background_difficulty":"0","image_path":"images/Other/With_Backgrounds/difficulty0_image7.png","trial_type":"image-button-response","trial_index":52,"time_elapsed":51214,"internal_node_id":"0.0-2.0-0.50"},{"rt":167,"stimulus":"images/Other/With_Backgrounds/difficulty3_image9.png","response":7,"category":"Other","background_difficulty":"3","image_path":"images/Other/With_Backgrounds/difficulty3_image9.png","trial_type":"image-button-response","trial_index":53,"time_elapsed":51382,"internal_node_id":"0.0-2.0-0.51"},{"rt":183,"stimulus":"images/Broccoli/With_Backgrounds/difficulty6_image6.png","response":7,"category":"Broccoli","background_difficulty":"6","image_path":"images/Broccoli/With_Backgrounds/difficulty6_image6.png","trial_type":"image-button-response","trial_index":54,"time_elapsed":51566,"internal_node_id":"0.0-2.0-0.52"},{"rt":174,"stimulus":"images/Cat/With_Backgrounds/difficulty2_image4.png","response":7,"category":"Cat","background_difficulty":"2","image_path":"images/Cat/With_Backgrounds/difficulty2_image4.png","trial_type":"image-button-response","trial_index":55,"time_elapsed":51742,"internal_node_id":"0.0-2.0-0.53"},{"rt":182,"stimulus":"images/Broccoli/With_Backgrounds/difficulty1_image3.png","response":7,"category":"Broccoli","background_difficulty":"1","image_path":"images/Broccoli/With_Backgrounds/difficulty1_image3.png","trial_type":"image-button-response","trial_index":56,"time_elapsed":51926,"internal_node_id":"0.0-2.0-0.54"},{"rt":383,"stimulus":"images/Car/With_Backgrounds/difficulty5_image0.png","response":7,"category":"Car","background_difficulty":"5","image_path":"images/Car/With_Backgrounds/difficulty5_image0.png","trial_type":"image-button-response","trial_index":57,"time_elapsed":52310,"internal_node_id":"0.0-2.0-0.55"},{"rt":190,"stimulus":"images/Other/With_Backgrounds/difficulty1_image5.png","response":7,"category":"Other","background_difficulty":"1","image_path":"images/Other/With_Backgrounds/difficulty1_image5.png","trial_type":"image-button-response","trial_index":58,"time_elapsed":52502,"internal_node_id":"0.0-2.0-0.56"},{"rt":183,"stimulus":"images/Dog/With_Backgrounds/difficulty4_image3.png","response":7,"category":"Dog","background_difficulty":"4","image_path":"images/Dog/With_Backgrounds/difficulty4_image3.png","trial_type":"image-button-response","trial_index":59,"time_elapsed":52686,"internal_node_id":"0.0-2.0-0.57"},{"rt":158,"stimulus":"images/Broccoli/With_Backgrounds/difficulty4_image0.png","response":7,"category":"Broccoli","background_difficulty":"4","image_path":"images/Broccoli/With_Backgrounds/difficulty4_image0.png","trial_type":"image-button-response","trial_index":60,"time_elapsed":52846,"internal_node_id":"0.0-2.0-0.58"},{"rt":191,"stimulus":"images/Tree/With_Backgrounds/difficulty8_image9.png","response":7,"category":"Tree","background_difficulty":"8","image_path":"images/Tree/With_Backgrounds/difficulty8_image9.png","trial_type":"image-button-response","trial_index":61,"time_elapsed":53038,"internal_node_id":"0.0-2.0-0.59"},{"rt":166,"stimulus":"images/Tree/With_Backgrounds/difficulty0_image1.png","response":7,"category":"Tree","background_difficulty":"0","image_path":"images/Tree/With_Backgrounds/difficulty0_image1.png","trial_type":"image-button-response","trial_index":62,"time_elapsed":53206,"internal_node_id":"0.0-2.0-0.60"},{"rt":166,"stimulus":"images/Cat/With_Backgrounds/difficulty6_image5.png","response":7,"category":"Cat","background_difficulty":"6","image_path":"images/Cat/With_Backgrounds/difficulty6_image5.png","trial_type":"image-button-response","trial_index":63,"time_elapsed":53374,"internal_node_id":"0.0-2.0-0.61"},{"rt":198,"stimulus":"images/Broccoli/With_Backgrounds/difficulty5_image2.png","response":7,"category":"Broccoli","background_difficulty":"5","image_path":"images/Broccoli/With_Backgrounds/difficulty5_image2.png","trial_type":"image-button-response","trial_index":64,"time_elapsed":53574,"internal_node_id":"0.0-2.0-0.62"},{"rt":191,"stimulus":"images/Human/With_Backgrounds/difficulty1_image5.png","response":7,"category":"Human","background_difficulty":"1","image_path":"images/Human/With_Backgrounds/difficulty1_image5.png","trial_type":"image-button-response","trial_index":65,"time_elapsed":53766,"internal_node_id":"0.0-2.0-0.63"},{"rt":174,"stimulus":"images/Dog/With_Backgrounds/difficulty3_image5.png","response":7,"category":"Dog","background_difficulty":"3","image_path":"images/Dog/With_Backgrounds/difficulty3_image5.png","trial_type":"image-button-response","trial_index":66,"time_elapsed":53942,"internal_node_id":"0.0-2.0-0.64"},{"rt":175,"stimulus":"images/Car/With_Backgrounds/difficulty2_image6.png","response":7,"category":"Car","background_difficulty":"2","image_path":"images/Car/With_Backgrounds/difficulty2_image6.png","trial_type":"image-button-response","trial_index":67,"time_elapsed":54118,"internal_node_id":"0.0-2.0-0.65"},{"rt":159,"stimulus":"images/Cat/With_Backgrounds/difficulty7_image8.png","response":7,"category":"Cat","background_difficulty":"7","image_path":"images/Cat/With_Backgrounds/difficulty7_image8.png","trial_type":"image-button-response","trial_index":68,"time_elapsed":54278,"internal_node_id":"0.0-2.0-0.66"},{"rt":183,"stimulus":"images/Cat/With_Backgrounds/difficulty8_image2.png","response":7,"category":"Cat","background_difficulty":"8","image_path":"images/Cat/With_Backgrounds/difficulty8_image2.png","trial_type":"image-button-response","trial_index":69,"time_elapsed":54462,"internal_node_id":"0.0-2.0-0.67"},{"rt":158,"stimulus":"images/Human/With_Backgrounds/difficulty5_image8.png","response":7,"category":"Human","background_difficulty":"5","image_path":"images/Human/With_Backgrounds/difficulty5_image8.png","trial_type":"image-button-response","trial_index":70,"time_elapsed":54622,"internal_node_id":"0.0-2.0-0.68"},{"rt":150,"stimulus":"images/Broccoli/With_Backgrounds/difficulty8_image5.png","response":7,"category":"Broccoli","background_difficulty":"8","image_path":"images/Broccoli/With_Backgrounds/difficulty8_image5.png","trial_type":"image-button-response","trial_index":71,"time_elapsed":54774,"internal_node_id":"0.0-2.0-0.69"},{"rt":167,"stimulus":"images/Dog/With_Backgrounds/difficulty2_image8.png","response":7,"category":"Dog","background_difficulty":"2","image_path":"images/Dog/With_Backgrounds/difficulty2_image8.png","trial_type":"image-button-response","trial_index":72,"time_elapsed":54942,"internal_node_id":"0.0-2.0-0.70"},{"rt":151,"stimulus":"images/Car/With_Backgrounds/difficulty6_image8.png","response":7,"category":"Car","background_difficulty":"6","image_path":"images/Car/With_Backgrounds/difficulty6_image8.png","trial_type":"image-button-response","trial_index":73,"time_elapsed":55094,"internal_node_id":"0.0-2.0-0.71"},{"rt":1175,"stimulus":["<h2>Press the button below to end experiment.</h2><p>Thank you for participating!</p>"],"response":0,"trial_type":"html-button-response","trial_index":74,"time_elapsed":56270,"internal_node_id":"0.0-3.0"}]