[{"success":true,"timeout":false,"failed_images":[],"failed_audio":[],"failed_video":[],"trial_type":"preload","trial_index":0,"time_elapsed":2007,"internal_node_id":"0.0-0.0"},{"rt":4170,"stimulus":["<h2>Noisy background image classification</h2><p>In this experiment you will briefly see images on top of colored squares of various sizes.</p><p>Your task is to report what each image is, selecting \"None of the Above\" if none of the given options are correct.</p> <p>The possible options are <strong>Boat</strong>, <strong>Broccoli</strong>, <strong>Car</strong>, <strong>Cat</strong>, <strong>Dog</strong>, <strong>Human</strong>, <strong>Tree</strong>, and <strong>None of the Above</strong>"],"response":0,"trial_type":"html-button-response","trial_index":1,"time_elapsed":6179,"internal_node_id":"0.0-1.0"},{"rt":1831,"stimulus":"images/Car/With_Backgrounds/difficulty8_image6.png","response":2,"category":"Car","background_difficulty":"8","image_path":"images/Car/With_Backgrounds/difficulty8_image6.png","trial_type":"image-button-response","trial_index":2,"time_elapsed":8012,"internal_node_id":"0.0-2.0-0.0"},{"rt":2886,"stimulus":"images/Human/With_Backgrounds/difficulty7_image5.png","response":5,"category":"Human","background_difficulty":"7","image_path":"images/Human/With_Backgrounds/difficulty7_image5.png","trial_type":"image-button-response","trial_index":3,"time_elapsed":10900,"internal_node_id":"0.0-2.0-0.1"},{"rt":1238,"stimulus":"images/Car/With_Backgrounds/difficulty3_image2.png","response":2,"category":"Car","background_difficulty":"3","image_path":"images/Car/With_Backgrounds/difficulty3_image2.png","trial_type":"image-button-response","trial_index":4,"time_elapsed":12139,"internal_node_id":"0.0-2.0-0.2"},{"rt":5178,"stimulus":"images/Other/With_Backgrounds/difficulty6_image9.png","response":7,"category":"Other","background_difficulty":"6","image_path":"images/Other/With_Backgrounds/difficulty6_image9.png","trial_type":"image-button-response","trial_index":5,"time_elapsed":17319,"internal_node_id":"0.0-2.0-0.3"},{"rt":1530,"stimulus":"images/Broccoli/With_Backgrounds/difficulty7_image3.png","response":1,"category":"Broccoli","background_difficulty":"7","image_path":"images/Broccoli/With_Backgrounds/difficulty7_image3.png","trial_type":"image-button-response","trial_index":6,"time_elapsed":18850,"internal_node_id":"0.0-2.0-0.4"},{"rt":2461,"stimulus":"images/Boat/With_Backgrounds/difficulty1_image3.png","response":0,"category":"Boat","background_difficulty":"1","image_path":"images/Boat/With_Backgrounds/difficulty1_image3.png","trial_type":"image-button-response","trial_index":7,"time_elapsed":21313,"internal_node_id":"0.0-2.0-0.5"},{"rt":1334,"stimulus":"images/Car/With_Backgrounds/difficulty6_image3.png","response":2,"category":"Car","background_difficulty":"6","image_path":"images/Car/With_Backgrounds/difficulty6_image3.png","trial_type":"image-button-response","trial_index":8,"time_elapsed":22648,"internal_node_id":"0.0-2.0-0.6"},{"rt":1268,"stimulus":"images/Car/With_Backgrounds/difficulty4_image9.png","response":2,"category":"Car","background_difficulty":"4","image_path":"images/Car/With_Backgrounds/difficulty4_image9.png","trial_type":"image-button-response","trial_index":9,"time_elapsed":23917,"internal_node_id":"0.0-2.0-0.7"},{"rt":1760,"stimulus":"images/Tree/With_Backgrounds/difficulty4_image7.png","response":6,"category":"Tree","background_difficulty":"4","image_path":"images/Tree/With_Backgrounds/difficulty4_image7.png","trial_type":"image-button-response","trial_index":10,"time_elapsed":25678,"internal_node_id":"0.0-2.0-0.8"},{"rt":1541,"stimulus":"images/Boat/With_Backgrounds/difficulty0_image5.png","response":0,"category":"Boat","background_difficulty":"0","image_path":"images/Boat/With_Backgrounds/difficulty0_image5.png","trial_type":"image-button-response","trial_index":11,"time_elapsed":27221,"internal_node_id":"0.0-2.0-0.9"},{"rt":1611,"stimulus":"images/Dog/With_Backgrounds/difficulty5_image3.png","response":4,"category":"Dog","background_difficulty":"5","image_path":"images/Dog/With_Backgrounds/difficulty5_image3.png","trial_type":"image-button-response","trial_index":12,"time_elapsed":28833,"internal_node_id":"0.0-2.0-0.10"},{"rt":7456,"stimulus":"images/Car/With_Backgrounds/difficulty7_image7.png","response":0,"category":"Car","background_difficulty":"7","image_path":"images/Car/With_Backgrounds/difficulty7_image7.png","trial_type":"image-button-response","trial_index":13,"time_elapsed":36291,"internal_node_id":"0.0-2.0-0.11"},{"rt":1290,"stimulus":"images/Dog/With_Backgrounds/difficulty0_image6.png","response":4,"category":"Dog","background_difficulty":"0","image_path":"images/Dog/With_Backgrounds/difficulty0_image6.png","trial_type":"image-button-response","trial_index":14,"time_elapsed":37582,"internal_node_id":"0.0-2.0-0.12"},{"rt":1184,"stimulus":"images/Car/With_Backgrounds/difficulty0_image5.png","response":2,"category":"Car","background_difficulty":"0","image_path":"images/Car/With_Backgrounds/difficulty0_image5.png","trial_type":"image-button-response","trial_index":15,"time_elapsed":38768,"internal_node_id":"0.0-2.0-0.13"},{"rt":1403,"stimulus":"images/Human/With_Backgrounds/difficulty3_image6.png","response":5,"category":"Human","background_difficulty":"3","image_path":"images/Human/With_Backgrounds/difficulty3_image6.png","trial_type":"image-button-response","trial_index":16,"time_elapsed":40172,"internal_node_id":"0.0-2.0-0.14"},{"rt":1693,"stimulus":"images/Other/With_Backgrounds/difficulty3_image3.png","response":7,"category":"Other","background_difficulty":"3","image_path":"images/Other/With_Backgrounds/difficulty3_image3.png","trial_type":"image-button-response","trial_index":17,"time_elapsed":41867,"internal_node_id":"0.0-2.0-0.15"},{"rt":1545,"stimulus":"images/Other/With_Backgrounds/difficulty2_image4.png","response":7,"category":"Other","background_difficulty":"2","image_path":"images/Other/With_Backgrounds/difficulty2_image4.png","trial_type":"image-button-response","trial_index":18,"time_elapsed":43414,"internal_node_id":"0.0-2.0-0.16"},{"rt":1309,"stimulus":"images/Tree/With_Backgrounds/difficulty2_image2.png","response":6,"category":"Tree","background_difficulty":"2","image_path":"images/Tree/With_Backgrounds/difficulty2_image2.png","trial_type":"image-button-response","trial_index":19,"time_elapsed":44724,"internal_node_id":"0.0-2.0-0.17"},{"rt":2025,"stimulus":"images/Boat/With_Backgrounds/difficulty3_image4.png","response":0,"category":"Boat","background_difficulty":"3","image_path":"images/Boat/With_Backgrounds/difficulty3_image4.png","trial_type":"image-button-response","trial_index":20,"time_elapsed":46751,"internal_node_id":"0.0-2.0-0.18"},{"rt":1516,"stimulus":"images/Other/With_Backgrounds/difficulty4_image8.png","response":7,"category":"Other","background_difficulty":"4","image_path":"images/Other/With_Backgrounds/difficulty4_image8.png","trial_type":"image-button-response","trial_index":21,"time_elapsed":48268,"internal_node_id":"0.0-2.0-0.19"},{"rt":2273,"stimulus":"images/Other/With_Backgrounds/difficulty5_image2.png","response":7,"category":"Other","background_difficulty":"5","image_path":"images/Other/With_Backgrounds/difficulty5_image2.png","trial_type":"image-button-response","trial_index":22,"time_elapsed":50543,"internal_node_id":"0.0-2.0-0.20"},{"rt":1677,"stimulus":"images/Boat/With_Backgrounds/difficulty5_image9.png","response":0,"category":"Boat","background_difficulty":"5","image_path":"images/Boat/With_Backgrounds/difficulty5_image9.png","trial_type":"image-button-response","trial_index":23,"time_elapsed":52221,"internal_node_id":"0.0-2.0-0.21"},{"rt":162999,"stimulus":"images/Broccoli/With_Backgrounds/difficulty5_image8.png","response":7,"category":"Broccoli","background_difficulty":"5","image_path":"images/Broccoli/With_Backgrounds/difficulty5_image8.png","trial_type":"image-button-response","trial_index":24,"time_elapsed":215221,"internal_node_id":"0.0-2.0-0.22"},{"rt":1174,"stimulus":"images/Human/With_Backgrounds/difficulty0_image1.png","response":5,"category":"Human","background_difficulty":"0","image_path":"images/Human/With_Backgrounds/difficulty0_image1.png","trial_type":"image-button-response","trial_index":25,"time_elapsed":216396,"internal_node_id":"0.0-2.0-0.23"},{"rt":1469,"stimulus":"images/Boat/With_Backgrounds/difficulty2_image1.png","response":0,"category":"Boat","background_difficulty":"2","image_path":"images/Boat/With_Backgrounds/difficulty2_image1.png","trial_type":"image-button-response","trial_index":26,"time_elapsed":217866,"internal_node_id":"0.0-2.0-0.24"},{"rt":1266,"stimulus":"images/Human/With_Backgrounds/difficulty8_image7.png","response":5,"category":"Human","background_difficulty":"8","image_path":"images/Human/With_Backgrounds/difficulty8_image7.png","trial_type":"image-button-response","trial_index":27,"time_elapsed":219134,"internal_node_id":"0.0-2.0-0.25"},{"rt":2017,"stimulus":"images/Boat/With_Backgrounds/difficulty7_image7.png","response":0,"category":"Boat","background_difficulty":"7","image_path":"images/Boat/With_Backgrounds/difficulty7_image7.png","trial_type":"image-button-response","trial_index":28,"time_elapsed":221152,"internal_node_id":"0.0-2.0-0.26"},{"rt":1168,"stimulus":"images/Car/With_Backgrounds/difficulty1_image8.png","response":2,"category":"Car","background_difficulty":"1","image_path":"images/Car/With_Backgrounds/difficulty1_image8.png","trial_type":"image-button-response","trial_index":29,"time_elapsed":222322,"internal_node_id":"0.0-2.0-0.27"},{"rt":1585,"stimulus":"images/Dog/With_Backgrounds/difficulty6_image5.png","response":4,"category":"Dog","background_difficulty":"6","image_path":"images/Dog/With_Backgrounds/difficulty6_image5.png","trial_type":"image-button-response","trial_index":30,"time_elapsed":223908,"internal_node_id":"0.0-2.0-0.28"},{"rt":1358,"stimulus":"images/Broccoli/With_Backgrounds/difficulty8_image7.png","response":1,"category":"Broccoli","background_difficulty":"8","image_path":"images/Broccoli/With_Backgrounds/difficulty8_image7.png","trial_type":"image-button-response","trial_index":31,"time_elapsed":225267,"internal_node_id":"0.0-2.0-0.29"},{"rt":2097,"stimulus":"images/Dog/With_Backgrounds/difficulty8_image4.png","response":4,"category":"Dog","background_difficulty":"8","image_path":"images/Dog/With_Backgrounds/difficulty8_image4.png","trial_type":"image-button-response","trial_index":32,"time_elapsed":227365,"internal_node_id":"0.0-2.0-0.30"},{"rt":1303,"stimulus":"images/Car/With_Backgrounds/difficulty2_image1.png","response":2,"category":"Car","background_difficulty":"2","image_path":"images/Car/With_Backgrounds/difficulty2_image1.png","trial_type":"image-button-response","trial_index":33,"time_elapsed":228670,"internal_node_id":"0.0-2.0-0.31"},{"rt":1334,"stimulus":"images/Human/With_Backgrounds/difficulty1_image2.png","response":5,"category":"Human","background_difficulty":"1","image_path":"images/Human/With_Backgrounds/difficulty1_image2.png","trial_type":"image-button-response","trial_index":34,"time_elapsed":230005,"internal_node_id":"0.0-2.0-0.32"},{"rt":1329,"stimulus":"images/Cat/With_Backgrounds/difficulty7_image0.png","response":3,"category":"Cat","background_difficulty":"7","image_path":"images/Cat/With_Backgrounds/difficulty7_image0.png","trial_type":"image-button-response","trial_index":35,"time_elapsed":231336,"internal_node_id":"0.0-2.0-0.33"},{"rt":1888,"stimulus":"images/Other/With_Backgrounds/difficulty0_image5.png","response":7,"category":"Other","background_difficulty":"0","image_path":"images/Other/With_Backgrounds/difficulty0_image5.png","trial_type":"image-button-response","trial_index":36,"time_elapsed":233225,"internal_node_id":"0.0-2.0-0.34"},{"rt":2920,"stimulus":"images/Other/With_Backgrounds/difficulty8_image0.png","response":7,"category":"Other","background_difficulty":"8","image_path":"images/Other/With_Backgrounds/difficulty8_image0.png","trial_type":"image-button-response","trial_index":37,"time_elapsed":236146,"internal_node_id":"0.0-2.0-0.35"},{"rt":1491,"stimulus":"images/Cat/With_Backgrounds/difficulty4_image9.png","response":3,"category":"Cat","background_difficulty":"4","image_path":"images/Cat/With_Backgrounds/difficulty4_image9.png","trial_type":"image-button-response","trial_index":38,"time_elapsed":237638,"internal_node_id":"0.0-2.0-0.36"},{"rt":1477,"stimulus":"images/Tree/With_Backgrounds/difficulty8_image3.png","response":6,"category":"Tree","background_difficulty":"8","image_path":"images/Tree/With_Backgrounds/difficulty8_image3.png","trial_type":"image-button-response","trial_index":39,"time_elapsed":239116,"internal_node_id":"0.0-2.0-0.37"},{"rt":1661,"stimulus":"images/Human/With_Backgrounds/difficulty5_image3.png","response":5,"category":"Human","background_difficulty":"5","image_path":"images/Human/With_Backgrounds/difficulty5_image3.png","trial_type":"image-button-response","trial_index":40,"time_elapsed":240778,"internal_node_id":"0.0-2.0-0.38"},{"rt":1767,"stimulus":"images/Tree/With_Backgrounds/difficulty3_image5.png","response":6,"category":"Tree","background_difficulty":"3","image_path":"images/Tree/With_Backgrounds/difficulty3_image5.png","trial_type":"image-button-response","trial_index":41,"time_elapsed":242547,"internal_node_id":"0.0-2.0-0.39"},{"rt":1428,"stimulus":"images/Cat/With_Backgrounds/difficulty8_image5.png","response":3,"category":"Cat","background_difficulty":"8","image_path":"images/Cat/With_Backgrounds/difficulty8_image5.png","trial_type":"image-button-response","trial_index":42,"time_elapsed":243976,"internal_node_id":"0.0-2.0-0.40"},{"rt":1523,"stimulus":"images/Broccoli/With_Backgrounds/difficulty6_image6.png","response":1,"category":"Broccoli","background_difficulty":"6","image_path":"images/Broccoli/With_Backgrounds/difficulty6_image6.png","trial_type":"image-button-response","trial_index":43,"time_elapsed":245501,"internal_node_id":"0.0-2.0-0.41"},{"rt":1395,"stimulus":"images/Cat/With_Backgrounds/difficulty1_image3.png","response":3,"category":"Cat","background_difficulty":"1","image_path":"images/Cat/With_Backgrounds/difficulty1_image3.png","trial_type":"image-button-response","trial_index":44,"time_elapsed":246897,"internal_node_id":"0.0-2.0-0.42"},{"rt":1111,"stimulus":"images/Dog/With_Backgrounds/difficulty7_image1.png","response":4,"category":"Dog","background_difficulty":"7","image_path":"images/Dog/With_Backgrounds/difficulty7_image1.png","trial_type":"image-button-response","trial_index":45,"time_elapsed":248010,"internal_node_id":"0.0-2.0-0.43"},{"rt":1331,"stimulus":"images/Broccoli/With_Backgrounds/difficulty0_image4.png","response":1,"category":"Broccoli","background_difficulty":"0","image_path":"images/Broccoli/With_Backgrounds/difficulty0_image4.png","trial_type":"image-button-response","trial_index":46,"time_elapsed":249343,"internal_node_id":"0.0-2.0-0.44"},{"rt":1637,"stimulus":"images/Cat/With_Backgrounds/difficulty3_image2.png","response":3,"category":"Cat","background_difficulty":"3","image_path":"images/Cat/With_Backgrounds/difficulty3_image2.png","trial_type":"image-button-response","trial_index":47,"time_elapsed":250981,"internal_node_id":"0.0-2.0-0.45"},{"rt":1547,"stimulus":"images/Broccoli/With_Backgrounds/difficulty3_image9.png","response":1,"category":"Broccoli","background_difficulty":"3","image_path":"images/Broccoli/With_Backgrounds/difficulty3_image9.png","trial_type":"image-button-response","trial_index":48,"time_elapsed":252530,"internal_node_id":"0.0-2.0-0.46"},{"rt":1596,"stimulus":"images/Cat/With_Backgrounds/difficulty6_image8.png","response":3,"category":"Cat","background_difficulty":"6","image_path":"images/Cat/With_Backgrounds/difficulty6_image8.png","trial_type":"image-button-response","trial_index":49,"time_elapsed":254128,"internal_node_id":"0.0-2.0-0.47"},{"rt":3204,"stimulus":"images/Dog/With_Backgrounds/difficulty3_image7.png","response":4,"category":"Dog","background_difficulty":"3","image_path":"images/Dog/With_Backgrounds/difficulty3_image7.png","trial_type":"image-button-response","trial_index":50,"time_elapsed":257333,"internal_node_id":"0.0-2.0-0.48"},{"rt":1208,"stimulus":"images/Cat/With_Backgrounds/difficulty2_image1.png","response":3,"category":"Cat","background_difficulty":"2","image_path":"images/Cat/With_Backgrounds/difficulty2_image1.png","trial_type":"image-button-response","trial_index":51,"time_elapsed":258542,"internal_node_id":"0.0-2.0-0.49"},{"rt":1096,"stimulus":"images/Tree/With_Backgrounds/difficulty6_image0.png","response":6,"category":"Tree","background_difficulty":"6","image_path":"images/Tree/With_Backgrounds/difficulty6_image0.png","trial_type":"image-button-response","trial_index":52,"time_elapsed":259640,"internal_node_id":"0.0-2.0-0.50"},{"rt":1784,"stimulus":"images/Boat/With_Backgrounds/difficulty6_image6.png","response":0,"category":"Boat","background_difficulty":"6","image_path":"images/Boat/With_Backgrounds/difficulty6_image6.png","trial_type":"image-button-response","trial_index":53,"time_elapsed":261425,"internal_node_id":"0.0-2.0-0.51"},{"rt":2063,"stimulus":"images/Tree/With_Backgrounds/difficulty0_image4.png","response":6,"category":"Tree","background_difficulty":"0","image_path":"images/Tree/With_Backgrounds/difficulty0_image4.png","trial_type":"image-button-response","trial_index":54,"time_elapsed":263490,"internal_node_id":"0.0-2.0-0.52"},{"rt":1129,"stimulus":"images/Cat/With_Backgrounds/difficulty5_image6.png","response":3,"category":"Cat","background_difficulty":"5","image_path":"images/Cat/With_Backgrounds/difficulty5_image6.png","trial_type":"image-button-response","trial_index":55,"time_elapsed":264620,"internal_node_id":"0.0-2.0-0.53"},{"rt":1153,"stimulus":"images/Tree/With_Backgrounds/difficulty5_image8.png","response":6,"category":"Tree","background_difficulty":"5","image_path":"images/Tree/With_Backgrounds/difficulty5_image8.png","trial_type":"image-button-response","trial_index":56,"time_elapsed":265774,"internal_node_id":"0.0-2.0-0.54"},{"rt":1564,"stimulus":"images/Human/With_Backgrounds/difficulty4_image8.png","response":5,"category":"Human","background_difficulty":"4","image_path":"images/Human/With_Backgrounds/difficulty4_image8.png","trial_type":"image-button-response","trial_index":57,"time_elapsed":267340,"internal_node_id":"0.0-2.0-0.55"},{"rt":1646,"stimulus":"images/Broccoli/With_Backgrounds/difficulty1_image0.png","response":1,"category":"Broccoli","background_difficulty":"1","image_path":"images/Broccoli/With_Backgrounds/difficulty1_image0.png","trial_type":"image-button-response","trial_index":58,"time_elapsed":268987,"internal_node_id":"0.0-2.0-0.56"},{"rt":1395,"stimulus":"images/Dog/With_Backgrounds/difficulty4_image0.png","response":4,"category":"Dog","background_difficulty":"4","image_path":"images/Dog/With_Backgrounds/difficulty4_image0.png","trial_type":"image-button-response","trial_index":59,"time_elapsed":270383,"internal_node_id":"0.0-2.0-0.57"},{"rt":1459,"stimulus":"images/Boat/With_Backgrounds/difficulty4_image0.png","response":0,"category":"Boat","background_difficulty":"4","image_path":"images/Boat/With_Backgrounds/difficulty4_image0.png","trial_type":"image-button-response","trial_index":60,"time_elapsed":271844,"internal_node_id":"0.0-2.0-0.58"},{"rt":1200,"stimulus":"images/Broccoli/With_Backgrounds/difficulty2_image1.png","response":1,"category":"Broccoli","background_difficulty":"2","image_path":"images/Broccoli/With_Backgrounds/difficulty2_image1.png","trial_type":"image-button-response","trial_index":61,"time_elapsed":273045,"internal_node_id":"0.0-2.0-0.59"},{"rt":1339,"stimulus":"images/Boat/With_Backgrounds/difficulty8_image2.png","response":0,"category":"Boat","background_difficulty":"8","image_path":"images/Boat/With_Backgrounds/difficulty8_image2.png","trial_type":"image-button-response","trial_index":62,"time_elapsed":274386,"internal_node_id":"0.0-2.0-0.60"},{"rt":1403,"stimulus":"images/Dog/With_Backgrounds/difficulty2_image9.png","response":4,"category":"Dog","background_difficulty":"2","image_path":"images/Dog/With_Backgrounds/difficulty2_image9.png","trial_type":"image-button-response","trial_index":63,"time_elapsed":275790,"internal_node_id":"0.0-2.0-0.61"},{"rt":1368,"stimulus":"images/Dog/With_Backgrounds/difficulty1_image2.png","response":4,"category":"Dog","background_difficulty":"1","image_path":"images/Dog/With_Backgrounds/difficulty1_image2.png","trial_type":"image-button-response","trial_index":64,"time_elapsed":277160,"internal_node_id":"0.0-2.0-0.62"},{"rt":1264,"stimulus":"images/Broccoli/With_Backgrounds/difficulty4_image5.png","response":1,"category":"Broccoli","background_difficulty":"4","image_path":"images/Broccoli/With_Backgrounds/difficulty4_image5.png","trial_type":"image-button-response","trial_index":65,"time_elapsed":278425,"internal_node_id":"0.0-2.0-0.63"},{"rt":1569,"stimulus":"images/Car/With_Backgrounds/difficulty5_image0.png","response":2,"category":"Car","background_difficulty":"5","image_path":"images/Car/With_Backgrounds/difficulty5_image0.png","trial_type":"image-button-response","trial_index":66,"time_elapsed":279995,"internal_node_id":"0.0-2.0-0.64"},{"rt":1158,"stimulus":"images/Human/With_Backgrounds/difficulty6_image4.png","response":5,"category":"Human","background_difficulty":"6","image_path":"images/Human/With_Backgrounds/difficulty6_image4.png","trial_type":"image-button-response","trial_index":67,"time_elapsed":281154,"internal_node_id":"0.0-2.0-0.65"},{"rt":1222,"stimulus":"images/Other/With_Backgrounds/difficulty1_image7.png","response":7,"category":"Other","background_difficulty":"1","image_path":"images/Other/With_Backgrounds/difficulty1_image7.png","trial_type":"image-button-response","trial_index":68,"time_elapsed":282377,"internal_node_id":"0.0-2.0-0.66"},{"rt":1401,"stimulus":"images/Cat/With_Backgrounds/difficulty0_image7.png","response":3,"category":"Cat","background_difficulty":"0","image_path":"images/Cat/With_Backgrounds/difficulty0_image7.png","trial_type":"image-button-response","trial_index":69,"time_elapsed":283780,"internal_node_id":"0.0-2.0-0.67"},{"rt":1038,"stimulus":"images/Human/With_Backgrounds/difficulty2_image9.png","response":5,"category":"Human","background_difficulty":"2","image_path":"images/Human/With_Backgrounds/difficulty2_image9.png","trial_type":"image-button-response","trial_index":70,"time_elapsed":284819,"internal_node_id":"0.0-2.0-0.68"},{"rt":1259,"stimulus":"images/Tree/With_Backgrounds/difficulty1_image9.png","response":6,"category":"Tree","background_difficulty":"1","image_path":"images/Tree/With_Backgrounds/difficulty1_image9.png","trial_type":"image-button-response","trial_index":71,"time_elapsed":286080,"internal_node_id":"0.0-2.0-0.69"},{"rt":1088,"stimulus":"images/Tree/With_Backgrounds/difficulty7_image6.png","response":6,"category":"Tree","background_difficulty":"7","image_path":"images/Tree/With_Backgrounds/difficulty7_image6.png","trial_type":"image-button-response","trial_index":72,"time_elapsed":287170,"internal_node_id":"0.0-2.0-0.70"},{"rt":1170,"stimulus":"images/Other/With_Backgrounds/difficulty7_image1.png","response":7,"category":"Other","background_difficulty":"7","image_path":"images/Other/With_Backgrounds/difficulty7_image1.png","trial_type":"image-button-response","trial_index":73,"time_elapsed":288341,"internal_node_id":"0.0-2.0-0.71"},{"rt":1387,"stimulus":["<h2>Press the button below to end experiment.</h2><p>Thank you for participating!</p>"],"response":0,"trial_type":"html-button-response","trial_index":74,"time_elapsed":289729,"internal_node_id":"0.0-3.0"}]