[{"success":true,"timeout":false,"failed_images":[],"failed_audio":[],"failed_video":[],"trial_type":"preload","trial_index":0,"time_elapsed":1750,"internal_node_id":"0.0-0.0"},{"rt":9174,"stimulus":["<h2>Noisy background image classification</h2><p>In this experiment you will briefly see images on top of colored squares of various sizes.</p><p>Your task is to report what each image is, selecting \"None of the Above\" if none of the given options are correct.</p> <p>The possible options are <strong>Boat</strong>, <strong>Broccoli</strong>, <strong>Car</strong>, <strong>Cat</strong>, <strong>Dog</strong>, <strong>Human</strong>, <strong>Tree</strong>, and <strong>None of the Above</strong>"],"response":0,"trial_type":"html-button-response","trial_index":1,"time_elapsed":10926,"internal_node_id":"0.0-1.0"},{"rt":3517,"stimulus":"images/Dog/With_Backgrounds/difficulty7_image8.png","response":4,"category":"Dog","background_difficulty":"7","image_path":"images/Dog/With_Backgrounds/difficulty7_image8.png","trial_type":"image-button-response","trial_index":2,"time_elapsed":14447,"internal_node_id":"0.0-2.0-0.0"},{"rt":1456,"stimulus":"images/Car/With_Backgrounds/difficulty2_image2.png","response":2,"category":"Car","background_difficulty":"2","image_path":"images/Car/With_Backgrounds/difficulty2_image2.png","trial_type":"image-button-response","trial_index":3,"time_elapsed":15904,"internal_node_id":"0.0-2.0-0.1"},{"rt":1225,"stimulus":"images/Car/With_Backgrounds/difficulty7_image3.png","response":2,"category":"Car","background_difficulty":"7","image_path":"images/Car/With_Backgrounds/difficulty7_image3.png","trial_type":"image-button-response","trial_index":4,"time_elapsed":17131,"internal_node_id":"0.0-2.0-0.2"},{"rt":1282,"stimulus":"images/Dog/With_Backgrounds/difficulty3_image2.png","response":4,"category":"Dog","background_difficulty":"3","image_path":"images/Dog/With_Backgrounds/difficulty3_image2.png","trial_type":"image-button-response","trial_index":5,"time_elapsed":18415,"internal_node_id":"0.0-2.0-0.3"},{"rt":1479,"stimulus":"images/Boat/With_Backgrounds/difficulty0_image0.png","response":0,"category":"Boat","background_difficulty":"0","image_path":"images/Boat/With_Backgrounds/difficulty0_image0.png","trial_type":"image-button-response","trial_index":6,"time_elapsed":19895,"internal_node_id":"0.0-2.0-0.4"},{"rt":1282,"stimulus":"images/Car/With_Backgrounds/difficulty8_image6.png","response":2,"category":"Car","background_difficulty":"8","image_path":"images/Car/With_Backgrounds/difficulty8_image6.png","trial_type":"image-button-response","trial_index":7,"time_elapsed":21179,"internal_node_id":"0.0-2.0-0.5"},{"rt":1123,"stimulus":"images/Dog/With_Backgrounds/difficulty5_image6.png","response":4,"category":"Dog","background_difficulty":"5","image_path":"images/Dog/With_Backgrounds/difficulty5_image6.png","trial_type":"image-button-response","trial_index":8,"time_elapsed":22304,"internal_node_id":"0.0-2.0-0.6"},{"rt":2928,"stimulus":"images/Tree/With_Backgrounds/difficulty1_image6.png","response":6,"category":"Tree","background_difficulty":"1","image_path":"images/Tree/With_Backgrounds/difficulty1_image6.png","trial_type":"image-button-response","trial_index":9,"time_elapsed":25233,"internal_node_id":"0.0-2.0-0.7"},{"rt":2869,"stimulus":"images/Other/With_Backgrounds/difficulty4_image3.png","response":7,"category":"Other","background_difficulty":"4","image_path":"images/Other/With_Backgrounds/difficulty4_image3.png","trial_type":"image-button-response","trial_index":10,"time_elapsed":28104,"internal_node_id":"0.0-2.0-0.8"},{"rt":1399,"stimulus":"images/Cat/With_Backgrounds/difficulty5_image3.png","response":3,"category":"Cat","background_difficulty":"5","image_path":"images/Cat/With_Backgrounds/difficulty5_image3.png","trial_type":"image-button-response","trial_index":11,"time_elapsed":29505,"internal_node_id":"0.0-2.0-0.9"},{"rt":1198,"stimulus":"images/Broccoli/With_Backgrounds/difficulty4_image6.png","response":1,"category":"Broccoli","background_difficulty":"4","image_path":"images/Broccoli/With_Backgrounds/difficulty4_image6.png","trial_type":"image-button-response","trial_index":12,"time_elapsed":30704,"internal_node_id":"0.0-2.0-0.10"},{"rt":1441,"stimulus":"images/Boat/With_Backgrounds/difficulty3_image1.png","response":0,"category":"Boat","background_difficulty":"3","image_path":"images/Boat/With_Backgrounds/difficulty3_image1.png","trial_type":"image-button-response","trial_index":13,"time_elapsed":32147,"internal_node_id":"0.0-2.0-0.11"},{"rt":1097,"stimulus":"images/Boat/With_Backgrounds/difficulty1_image4.png","response":0,"category":"Boat","background_difficulty":"1","image_path":"images/Boat/With_Backgrounds/difficulty1_image4.png","trial_type":"image-button-response","trial_index":14,"time_elapsed":33245,"internal_node_id":"0.0-2.0-0.12"},{"rt":1957,"stimulus":"images/Human/With_Backgrounds/difficulty1_image0.png","response":5,"category":"Human","background_difficulty":"1","image_path":"images/Human/With_Backgrounds/difficulty1_image0.png","trial_type":"image-button-response","trial_index":15,"time_elapsed":35203,"internal_node_id":"0.0-2.0-0.13"},{"rt":2032,"stimulus":"images/Other/With_Backgrounds/difficulty3_image0.png","response":7,"category":"Other","background_difficulty":"3","image_path":"images/Other/With_Backgrounds/difficulty3_image0.png","trial_type":"image-button-response","trial_index":16,"time_elapsed":37237,"internal_node_id":"0.0-2.0-0.14"},{"rt":1724,"stimulus":"images/Car/With_Backgrounds/difficulty1_image9.png","response":2,"category":"Car","background_difficulty":"1","image_path":"images/Car/With_Backgrounds/difficulty1_image9.png","trial_type":"image-button-response","trial_index":17,"time_elapsed":38962,"internal_node_id":"0.0-2.0-0.15"},{"rt":1281,"stimulus":"images/Boat/With_Backgrounds/difficulty5_image8.png","response":0,"category":"Boat","background_difficulty":"5","image_path":"images/Boat/With_Backgrounds/difficulty5_image8.png","trial_type":"image-button-response","trial_index":18,"time_elapsed":40245,"internal_node_id":"0.0-2.0-0.16"},{"rt":1124,"stimulus":"images/Broccoli/With_Backgrounds/difficulty0_image4.png","response":1,"category":"Broccoli","background_difficulty":"0","image_path":"images/Broccoli/With_Backgrounds/difficulty0_image4.png","trial_type":"image-button-response","trial_index":19,"time_elapsed":41370,"internal_node_id":"0.0-2.0-0.17"},{"rt":1032,"stimulus":"images/Broccoli/With_Backgrounds/difficulty1_image2.png","response":1,"category":"Broccoli","background_difficulty":"1","image_path":"images/Broccoli/With_Backgrounds/difficulty1_image2.png","trial_type":"image-button-response","trial_index":20,"time_elapsed":42403,"internal_node_id":"0.0-2.0-0.18"},{"rt":1498,"stimulus":"images/Tree/With_Backgrounds/difficulty7_image2.png","response":6,"category":"Tree","background_difficulty":"7","image_path":"images/Tree/With_Backgrounds/difficulty7_image2.png","trial_type":"image-button-response","trial_index":21,"time_elapsed":43903,"internal_node_id":"0.0-2.0-0.19"},{"rt":1583,"stimulus":"images/Broccoli/With_Backgrounds/difficulty3_image0.png","response":1,"category":"Broccoli","background_difficulty":"3","image_path":"images/Broccoli/With_Backgrounds/difficulty3_image0.png","trial_type":"image-button-response","trial_index":22,"time_elapsed":45486,"internal_node_id":"0.0-2.0-0.20"},{"rt":1257,"stimulus":"images/Human/With_Backgrounds/difficulty7_image5.png","response":5,"category":"Human","background_difficulty":"7","image_path":"images/Human/With_Backgrounds/difficulty7_image5.png","trial_type":"image-button-response","trial_index":23,"time_elapsed":46745,"internal_node_id":"0.0-2.0-0.21"},{"rt":1184,"stimulus":"images/Boat/With_Backgrounds/difficulty4_image7.png","response":0,"category":"Boat","background_difficulty":"4","image_path":"images/Boat/With_Backgrounds/difficulty4_image7.png","trial_type":"image-button-response","trial_index":24,"time_elapsed":47930,"internal_node_id":"0.0-2.0-0.22"},{"rt":1397,"stimulus":"images/Tree/With_Backgrounds/difficulty2_image9.png","response":6,"category":"Tree","background_difficulty":"2","image_path":"images/Tree/With_Backgrounds/difficulty2_image9.png","trial_type":"image-button-response","trial_index":25,"time_elapsed":49328,"internal_node_id":"0.0-2.0-0.23"},{"rt":1009,"stimulus":"images/Broccoli/With_Backgrounds/difficulty7_image5.png","response":1,"category":"Broccoli","background_difficulty":"7","image_path":"images/Broccoli/With_Backgrounds/difficulty7_image5.png","trial_type":"image-button-response","trial_index":26,"time_elapsed":50338,"internal_node_id":"0.0-2.0-0.24"},{"rt":1181,"stimulus":"images/Dog/With_Backgrounds/difficulty2_image5.png","response":4,"category":"Dog","background_difficulty":"2","image_path":"images/Dog/With_Backgrounds/difficulty2_image5.png","trial_type":"image-button-response","trial_index":27,"time_elapsed":51520,"internal_node_id":"0.0-2.0-0.25"},{"rt":1257,"stimulus":"images/Other/With_Backgrounds/difficulty1_image5.png","response":7,"category":"Other","background_difficulty":"1","image_path":"images/Other/With_Backgrounds/difficulty1_image5.png","trial_type":"image-button-response","trial_index":28,"time_elapsed":52778,"internal_node_id":"0.0-2.0-0.26"},{"rt":1316,"stimulus":"images/Boat/With_Backgrounds/difficulty6_image9.png","response":0,"category":"Boat","background_difficulty":"6","image_path":"images/Boat/With_Backgrounds/difficulty6_image9.png","trial_type":"image-button-response","trial_index":29,"time_elapsed":54095,"internal_node_id":"0.0-2.0-0.27"},{"rt":1123,"stimulus":"images/Broccoli/With_Backgrounds/difficulty5_image9.png","response":1,"category":"Broccoli","background_difficulty":"5","image_path":"images/Broccoli/With_Backgrounds/difficulty5_image9.png","trial_type":"image-button-response","trial_index":30,"time_elapsed":55219,"internal_node_id":"0.0-2.0-0.28"},{"rt":1857,"stimulus":"images/Cat/With_Backgrounds/difficulty7_image5.png","response":3,"category":"Cat","background_difficulty":"7","image_path":"images/Cat/With_Backgrounds/difficulty7_image5.png","trial_type":"image-button-response","trial_index":31,"time_elapsed":57078,"internal_node_id":"0.0-2.0-0.29"},{"rt":1412,"stimulus":"images/Other/With_Backgrounds/difficulty7_image8.png","response":7,"category":"Other","background_difficulty":"7","image_path":"images/Other/With_Backgrounds/difficulty7_image8.png","trial_type":"image-button-response","trial_index":32,"time_elapsed":58491,"internal_node_id":"0.0-2.0-0.30"},{"rt":1706,"stimulus":"images/Boat/With_Backgrounds/difficulty2_image6.png","response":0,"category":"Boat","background_difficulty":"2","image_path":"images/Boat/With_Backgrounds/difficulty2_image6.png","trial_type":"image-button-response","trial_index":33,"time_elapsed":60198,"internal_node_id":"0.0-2.0-0.31"},{"rt":1199,"stimulus":"images/Dog/With_Backgrounds/difficulty4_image7.png","response":4,"category":"Dog","background_difficulty":"4","image_path":"images/Dog/With_Backgrounds/difficulty4_image7.png","trial_type":"image-button-response","trial_index":34,"time_elapsed":61399,"internal_node_id":"0.0-2.0-0.32"},{"rt":1835,"stimulus":"images/Other/With_Backgrounds/difficulty8_image4.png","response":7,"category":"Other","background_difficulty":"8","image_path":"images/Other/With_Backgrounds/difficulty8_image4.png","trial_type":"image-button-response","trial_index":35,"time_elapsed":63236,"internal_node_id":"0.0-2.0-0.33"},{"rt":1574,"stimulus":"images/Cat/With_Backgrounds/difficulty1_image4.png","response":3,"category":"Cat","background_difficulty":"1","image_path":"images/Cat/With_Backgrounds/difficulty1_image4.png","trial_type":"image-button-response","trial_index":36,"time_elapsed":64811,"internal_node_id":"0.0-2.0-0.34"},{"rt":2032,"stimulus":"images/Dog/With_Backgrounds/difficulty1_image9.png","response":4,"category":"Dog","background_difficulty":"1","image_path":"images/Dog/With_Backgrounds/difficulty1_image9.png","trial_type":"image-button-response","trial_index":37,"time_elapsed":66844,"internal_node_id":"0.0-2.0-0.35"},{"rt":1486,"stimulus":"images/Human/With_Backgrounds/difficulty8_image8.png","response":5,"category":"Human","background_difficulty":"8","image_path":"images/Human/With_Backgrounds/difficulty8_image8.png","trial_type":"image-button-response","trial_index":38,"time_elapsed":68331,"internal_node_id":"0.0-2.0-0.36"},{"rt":1413,"stimulus":"images/Cat/With_Backgrounds/difficulty4_image7.png","response":3,"category":"Cat","background_difficulty":"4","image_path":"images/Cat/With_Backgrounds/difficulty4_image7.png","trial_type":"image-button-response","trial_index":39,"time_elapsed":69746,"internal_node_id":"0.0-2.0-0.37"},{"rt":997,"stimulus":"images/Broccoli/With_Backgrounds/difficulty6_image1.png","response":1,"category":"Broccoli","background_difficulty":"6","image_path":"images/Broccoli/With_Backgrounds/difficulty6_image1.png","trial_type":"image-button-response","trial_index":40,"time_elapsed":70744,"internal_node_id":"0.0-2.0-0.38"},{"rt":1128,"stimulus":"images/Human/With_Backgrounds/difficulty5_image7.png","response":5,"category":"Human","background_difficulty":"5","image_path":"images/Human/With_Backgrounds/difficulty5_image7.png","trial_type":"image-button-response","trial_index":41,"time_elapsed":71873,"internal_node_id":"0.0-2.0-0.39"},{"rt":1295,"stimulus":"images/Tree/With_Backgrounds/difficulty6_image8.png","response":6,"category":"Tree","background_difficulty":"6","image_path":"images/Tree/With_Backgrounds/difficulty6_image8.png","trial_type":"image-button-response","trial_index":42,"time_elapsed":73170,"internal_node_id":"0.0-2.0-0.40"},{"rt":1075,"stimulus":"images/Tree/With_Backgrounds/difficulty4_image7.png","response":6,"category":"Tree","background_difficulty":"4","image_path":"images/Tree/With_Backgrounds/difficulty4_image7.png","trial_type":"image-button-response","trial_index":43,"time_elapsed":74245,"internal_node_id":"0.0-2.0-0.41"},{"rt":1192,"stimulus":"images/Other/With_Backgrounds/difficulty0_image7.png","response":7,"category":"Other","background_difficulty":"0","image_path":"images/Other/With_Backgrounds/difficulty0_image7.png","trial_type":"image-button-response","trial_index":44,"time_elapsed":75439,"internal_node_id":"0.0-2.0-0.42"},{"rt":1064,"stimulus":"images/Dog/With_Backgrounds/difficulty6_image3.png","response":4,"category":"Dog","background_difficulty":"6","image_path":"images/Dog/With_Backgrounds/difficulty6_image3.png","trial_type":"image-button-response","trial_index":45,"time_elapsed":76504,"internal_node_id":"0.0-2.0-0.43"},{"rt":1366,"stimulus":"images/Tree/With_Backgrounds/difficulty8_image3.png","response":6,"category":"Tree","background_difficulty":"8","image_path":"images/Tree/With_Backgrounds/difficulty8_image3.png","trial_type":"image-button-response","trial_index":46,"time_elapsed":77871,"internal_node_id":"0.0-2.0-0.44"},{"rt":1257,"stimulus":"images/Car/With_Backgrounds/difficulty5_image4.png","response":2,"category":"Car","background_difficulty":"5","image_path":"images/Car/With_Backgrounds/difficulty5_image4.png","trial_type":"image-button-response","trial_index":47,"time_elapsed":79129,"internal_node_id":"0.0-2.0-0.45"},{"rt":1065,"stimulus":"images/Boat/With_Backgrounds/difficulty7_image5.png","response":0,"category":"Boat","background_difficulty":"7","image_path":"images/Boat/With_Backgrounds/difficulty7_image5.png","trial_type":"image-button-response","trial_index":48,"time_elapsed":80195,"internal_node_id":"0.0-2.0-0.46"},{"rt":1440,"stimulus":"images/Other/With_Backgrounds/difficulty2_image6.png","response":7,"category":"Other","background_difficulty":"2","image_path":"images/Other/With_Backgrounds/difficulty2_image6.png","trial_type":"image-button-response","trial_index":49,"time_elapsed":81636,"internal_node_id":"0.0-2.0-0.47"},{"rt":1157,"stimulus":"images/Broccoli/With_Backgrounds/difficulty2_image8.png","response":1,"category":"Broccoli","background_difficulty":"2","image_path":"images/Broccoli/With_Backgrounds/difficulty2_image8.png","trial_type":"image-button-response","trial_index":50,"time_elapsed":82794,"internal_node_id":"0.0-2.0-0.48"},{"rt":1190,"stimulus":"images/Human/With_Backgrounds/difficulty4_image9.png","response":5,"category":"Human","background_difficulty":"4","image_path":"images/Human/With_Backgrounds/difficulty4_image9.png","trial_type":"image-button-response","trial_index":51,"time_elapsed":83986,"internal_node_id":"0.0-2.0-0.49"},{"rt":1416,"stimulus":"images/Cat/With_Backgrounds/difficulty0_image2.png","response":3,"category":"Cat","background_difficulty":"0","image_path":"images/Cat/With_Backgrounds/difficulty0_image2.png","trial_type":"image-button-response","trial_index":52,"time_elapsed":85403,"internal_node_id":"0.0-2.0-0.50"},{"rt":1012,"stimulus":"images/Broccoli/With_Backgrounds/difficulty8_image3.png","response":1,"category":"Broccoli","background_difficulty":"8","image_path":"images/Broccoli/With_Backgrounds/difficulty8_image3.png","trial_type":"image-button-response","trial_index":53,"time_elapsed":86416,"internal_node_id":"0.0-2.0-0.51"},{"rt":976,"stimulus":"images/Human/With_Backgrounds/difficulty6_image3.png","response":5,"category":"Human","background_difficulty":"6","image_path":"images/Human/With_Backgrounds/difficulty6_image3.png","trial_type":"image-button-response","trial_index":54,"time_elapsed":87394,"internal_node_id":"0.0-2.0-0.52"},{"rt":1124,"stimulus":"images/Boat/With_Backgrounds/difficulty8_image3.png","response":0,"category":"Boat","background_difficulty":"8","image_path":"images/Boat/With_Backgrounds/difficulty8_image3.png","trial_type":"image-button-response","trial_index":55,"time_elapsed":88519,"internal_node_id":"0.0-2.0-0.53"},{"rt":1457,"stimulus":"images/Car/With_Backgrounds/difficulty0_image7.png","response":2,"category":"Car","background_difficulty":"0","image_path":"images/Car/With_Backgrounds/difficulty0_image7.png","trial_type":"image-button-response","trial_index":56,"time_elapsed":89977,"internal_node_id":"0.0-2.0-0.54"},{"rt":1334,"stimulus":"images/Car/With_Backgrounds/difficulty3_image0.png","response":2,"category":"Car","background_difficulty":"3","image_path":"images/Car/With_Backgrounds/difficulty3_image0.png","trial_type":"image-button-response","trial_index":57,"time_elapsed":91313,"internal_node_id":"0.0-2.0-0.55"},{"rt":1511,"stimulus":"images/Other/With_Backgrounds/difficulty5_image9.png","response":7,"category":"Other","background_difficulty":"5","image_path":"images/Other/With_Backgrounds/difficulty5_image9.png","trial_type":"image-button-response","trial_index":58,"time_elapsed":92826,"internal_node_id":"0.0-2.0-0.56"},{"rt":1208,"stimulus":"images/Tree/With_Backgrounds/difficulty3_image4.png","response":6,"category":"Tree","background_difficulty":"3","image_path":"images/Tree/With_Backgrounds/difficulty3_image4.png","trial_type":"image-button-response","trial_index":59,"time_elapsed":94036,"internal_node_id":"0.0-2.0-0.57"},{"rt":959,"stimulus":"images/Dog/With_Backgrounds/difficulty8_image1.png","response":4,"category":"Dog","background_difficulty":"8","image_path":"images/Dog/With_Backgrounds/difficulty8_image1.png","trial_type":"image-button-response","trial_index":60,"time_elapsed":94996,"internal_node_id":"0.0-2.0-0.58"},{"rt":1383,"stimulus":"images/Cat/With_Backgrounds/difficulty3_image6.png","response":3,"category":"Cat","background_difficulty":"3","image_path":"images/Cat/With_Backgrounds/difficulty3_image6.png","trial_type":"image-button-response","trial_index":61,"time_elapsed":96379,"internal_node_id":"0.0-2.0-0.59"},{"rt":1375,"stimulus":"images/Tree/With_Backgrounds/difficulty5_image5.png","response":6,"category":"Tree","background_difficulty":"5","image_path":"images/Tree/With_Backgrounds/difficulty5_image5.png","trial_type":"image-button-response","trial_index":62,"time_elapsed":97755,"internal_node_id":"0.0-2.0-0.60"},{"rt":1322,"stimulus":"images/Dog/With_Backgrounds/difficulty0_image4.png","response":4,"category":"Dog","background_difficulty":"0","image_path":"images/Dog/With_Backgrounds/difficulty0_image4.png","trial_type":"image-button-response","trial_index":63,"time_elapsed":99077,"internal_node_id":"0.0-2.0-0.61"},{"rt":1242,"stimulus":"images/Car/With_Backgrounds/difficulty4_image8.png","response":2,"category":"Car","background_difficulty":"4","image_path":"images/Car/With_Backgrounds/difficulty4_image8.png","trial_type":"image-button-response","trial_index":64,"time_elapsed":100320,"internal_node_id":"0.0-2.0-0.62"},{"rt":1032,"stimulus":"images/Tree/With_Backgrounds/difficulty0_image0.png","response":6,"category":"Tree","background_difficulty":"0","image_path":"images/Tree/With_Backgrounds/difficulty0_image0.png","trial_type":"image-button-response","trial_index":65,"time_elapsed":101352,"internal_node_id":"0.0-2.0-0.63"},{"rt":1876,"stimulus":"images/Human/With_Backgrounds/difficulty0_image6.png","response":5,"category":"Human","background_difficulty":"0","image_path":"images/Human/With_Backgrounds/difficulty0_image6.png","trial_type":"image-button-response","trial_index":66,"time_elapsed":103229,"internal_node_id":"0.0-2.0-0.64"},{"rt":1271,"stimulus":"images/Cat/With_Backgrounds/difficulty6_image8.png","response":3,"category":"Cat","background_difficulty":"6","image_path":"images/Cat/With_Backgrounds/difficulty6_image8.png","trial_type":"image-button-response","trial_index":67,"time_elapsed":104502,"internal_node_id":"0.0-2.0-0.65"},{"rt":1203,"stimulus":"images/Other/With_Backgrounds/difficulty6_image2.png","response":7,"category":"Other","background_difficulty":"6","image_path":"images/Other/With_Backgrounds/difficulty6_image2.png","trial_type":"image-button-response","trial_index":68,"time_elapsed":105707,"internal_node_id":"0.0-2.0-0.66"},{"rt":1069,"stimulus":"images/Human/With_Backgrounds/difficulty3_image4.png","response":5,"category":"Human","background_difficulty":"3","image_path":"images/Human/With_Backgrounds/difficulty3_image4.png","trial_type":"image-button-response","trial_index":69,"time_elapsed":106777,"internal_node_id":"0.0-2.0-0.67"},{"rt":982,"stimulus":"images/Human/With_Backgrounds/difficulty2_image1.png","response":5,"category":"Human","background_difficulty":"2","image_path":"images/Human/With_Backgrounds/difficulty2_image1.png","trial_type":"image-button-response","trial_index":70,"time_elapsed":107760,"internal_node_id":"0.0-2.0-0.68"},{"rt":1257,"stimulus":"images/Cat/With_Backgrounds/difficulty2_image1.png","response":3,"category":"Cat","background_difficulty":"2","image_path":"images/Cat/With_Backgrounds/difficulty2_image1.png","trial_type":"image-button-response","trial_index":71,"time_elapsed":109019,"internal_node_id":"0.0-2.0-0.69"},{"rt":1042,"stimulus":"images/Cat/With_Backgrounds/difficulty8_image0.png","response":3,"category":"Cat","background_difficulty":"8","image_path":"images/Cat/With_Backgrounds/difficulty8_image0.png","trial_type":"image-button-response","trial_index":72,"time_elapsed":110062,"internal_node_id":"0.0-2.0-0.70"},{"rt":1389,"stimulus":"images/Car/With_Backgrounds/difficulty6_image5.png","response":2,"category":"Car","background_difficulty":"6","image_path":"images/Car/With_Backgrounds/difficulty6_image5.png","trial_type":"image-button-response","trial_index":73,"time_elapsed":111452,"internal_node_id":"0.0-2.0-0.71"},{"rt":1674,"stimulus":["<h2>Press the button below to end experiment.</h2><p>Thank you for participating!</p>"],"response":0,"trial_type":"html-button-response","trial_index":74,"time_elapsed":113127,"internal_node_id":"0.0-3.0"}]