[{"success":true,"timeout":false,"failed_images":[],"failed_audio":[],"failed_video":[],"trial_type":"preload","trial_index":0,"time_elapsed":946,"internal_node_id":"0.0-0.0"},{"rt":16929,"stimulus":["<h2>Noisy background image classification</h2><p>In this experiment you will briefly see images on top of colored squares of various sizes.</p><p>Your task is to report what each image is, selecting \"None of the Above\" if none of the given options are correct.</p> <p>The possible options are <strong>Boat</strong>, <strong>Broccoli</strong>, <strong>Car</strong>, <strong>Cat</strong>, <strong>Dog</strong>, <strong>Human</strong>, <strong>Tree</strong>, and <strong>None of the Above</strong>"],"response":0,"trial_type":"html-button-response","trial_index":1,"time_elapsed":17877,"internal_node_id":"0.0-1.0"},{"rt":10516,"stimulus":"images/Other/With_Backgrounds/difficulty5_image0.png","response":7,"category":"Other","background_difficulty":"5","image_path":"images/Other/With_Backgrounds/difficulty5_image0.png","trial_type":"image-button-response","trial_index":2,"time_elapsed":28414,"internal_node_id":"0.0-2.0-0.0"},{"rt":4447,"stimulus":"images/Broccoli/With_Backgrounds/difficulty4_image1.png","response":1,"category":"Broccoli","background_difficulty":"4","image_path":"images/Broccoli/With_Backgrounds/difficulty4_image1.png","trial_type":"image-button-response","trial_index":3,"time_elapsed":32870,"internal_node_id":"0.0-2.0-0.1"},{"rt":2913,"stimulus":"images/Car/With_Backgrounds/difficulty5_image6.png","response":2,"category":"Car","background_difficulty":"5","image_path":"images/Car/With_Backgrounds/difficulty5_image6.png","trial_type":"image-button-response","trial_index":4,"time_elapsed":35788,"internal_node_id":"0.0-2.0-0.2"},{"rt":3946,"stimulus":"images/Other/With_Backgrounds/difficulty2_image6.png","response":7,"category":"Other","background_difficulty":"2","image_path":"images/Other/With_Backgrounds/difficulty2_image6.png","trial_type":"image-button-response","trial_index":5,"time_elapsed":39740,"internal_node_id":"0.0-2.0-0.3"},{"rt":2164,"stimulus":"images/Car/With_Backgrounds/difficulty6_image9.png","response":2,"category":"Car","background_difficulty":"6","image_path":"images/Car/With_Backgrounds/difficulty6_image9.png","trial_type":"image-button-response","trial_index":6,"time_elapsed":41908,"internal_node_id":"0.0-2.0-0.4"},{"rt":1627,"stimulus":"images/Broccoli/With_Backgrounds/difficulty8_image8.png","response":1,"category":"Broccoli","background_difficulty":"8","image_path":"images/Broccoli/With_Backgrounds/difficulty8_image8.png","trial_type":"image-button-response","trial_index":7,"time_elapsed":43541,"internal_node_id":"0.0-2.0-0.5"},{"rt":2015,"stimulus":"images/Tree/With_Backgrounds/difficulty2_image1.png","response":6,"category":"Tree","background_difficulty":"2","image_path":"images/Tree/With_Backgrounds/difficulty2_image1.png","trial_type":"image-button-response","trial_index":8,"time_elapsed":45561,"internal_node_id":"0.0-2.0-0.6"},{"rt":3895,"stimulus":"images/Other/With_Backgrounds/difficulty1_image1.png","response":7,"category":"Other","background_difficulty":"1","image_path":"images/Other/With_Backgrounds/difficulty1_image1.png","trial_type":"image-button-response","trial_index":9,"time_elapsed":49461,"internal_node_id":"0.0-2.0-0.7"},{"rt":2095,"stimulus":"images/Cat/With_Backgrounds/difficulty7_image3.png","response":3,"category":"Cat","background_difficulty":"7","image_path":"images/Cat/With_Backgrounds/difficulty7_image3.png","trial_type":"image-button-response","trial_index":10,"time_elapsed":51562,"internal_node_id":"0.0-2.0-0.8"},{"rt":1779,"stimulus":"images/Tree/With_Backgrounds/difficulty3_image8.png","response":6,"category":"Tree","background_difficulty":"3","image_path":"images/Tree/With_Backgrounds/difficulty3_image8.png","trial_type":"image-button-response","trial_index":11,"time_elapsed":53345,"internal_node_id":"0.0-2.0-0.9"},{"rt":1494,"stimulus":"images/Dog/With_Backgrounds/difficulty2_image5.png","response":4,"category":"Dog","background_difficulty":"2","image_path":"images/Dog/With_Backgrounds/difficulty2_image5.png","trial_type":"image-button-response","trial_index":12,"time_elapsed":54844,"internal_node_id":"0.0-2.0-0.10"},{"rt":1878,"stimulus":"images/Human/With_Backgrounds/difficulty6_image3.png","response":5,"category":"Human","background_difficulty":"6","image_path":"images/Human/With_Backgrounds/difficulty6_image3.png","trial_type":"image-button-response","trial_index":13,"time_elapsed":56729,"internal_node_id":"0.0-2.0-0.11"},{"rt":1946,"stimulus":"images/Boat/With_Backgrounds/difficulty6_image8.png","response":0,"category":"Boat","background_difficulty":"6","image_path":"images/Boat/With_Backgrounds/difficulty6_image8.png","trial_type":"image-button-response","trial_index":14,"time_elapsed":58679,"internal_node_id":"0.0-2.0-0.12"},{"rt":1932,"stimulus":"images/Cat/With_Backgrounds/difficulty5_image8.png","response":3,"category":"Cat","background_difficulty":"5","image_path":"images/Cat/With_Backgrounds/difficulty5_image8.png","trial_type":"image-button-response","trial_index":15,"time_elapsed":60615,"internal_node_id":"0.0-2.0-0.13"},{"rt":1506,"stimulus":"images/Cat/With_Backgrounds/difficulty0_image2.png","response":3,"category":"Cat","background_difficulty":"0","image_path":"images/Cat/With_Backgrounds/difficulty0_image2.png","trial_type":"image-button-response","trial_index":16,"time_elapsed":62133,"internal_node_id":"0.0-2.0-0.14"},{"rt":1527,"stimulus":"images/Broccoli/With_Backgrounds/difficulty2_image9.png","response":1,"category":"Broccoli","background_difficulty":"2","image_path":"images/Broccoli/With_Backgrounds/difficulty2_image9.png","trial_type":"image-button-response","trial_index":17,"time_elapsed":63671,"internal_node_id":"0.0-2.0-0.15"},{"rt":2008,"stimulus":"images/Other/With_Backgrounds/difficulty8_image3.png","response":7,"category":"Other","background_difficulty":"8","image_path":"images/Other/With_Backgrounds/difficulty8_image3.png","trial_type":"image-button-response","trial_index":18,"time_elapsed":65691,"internal_node_id":"0.0-2.0-0.16"},{"rt":2003,"stimulus":"images/Boat/With_Backgrounds/difficulty4_image7.png","response":0,"category":"Boat","background_difficulty":"4","image_path":"images/Boat/With_Backgrounds/difficulty4_image7.png","trial_type":"image-button-response","trial_index":19,"time_elapsed":67703,"internal_node_id":"0.0-2.0-0.17"},{"rt":1605,"stimulus":"images/Car/With_Backgrounds/difficulty2_image5.png","response":2,"category":"Car","background_difficulty":"2","image_path":"images/Car/With_Backgrounds/difficulty2_image5.png","trial_type":"image-button-response","trial_index":20,"time_elapsed":69317,"internal_node_id":"0.0-2.0-0.18"},{"rt":1913,"stimulus":"images/Tree/With_Backgrounds/difficulty1_image0.png","response":6,"category":"Tree","background_difficulty":"1","image_path":"images/Tree/With_Backgrounds/difficulty1_image0.png","trial_type":"image-button-response","trial_index":21,"time_elapsed":71236,"internal_node_id":"0.0-2.0-0.19"},{"rt":1732,"stimulus":"images/Cat/With_Backgrounds/difficulty4_image6.png","response":3,"category":"Cat","background_difficulty":"4","image_path":"images/Cat/With_Backgrounds/difficulty4_image6.png","trial_type":"image-button-response","trial_index":22,"time_elapsed":72972,"internal_node_id":"0.0-2.0-0.20"},{"rt":1497,"stimulus":"images/Tree/With_Backgrounds/difficulty7_image3.png","response":6,"category":"Tree","background_difficulty":"7","image_path":"images/Tree/With_Backgrounds/difficulty7_image3.png","trial_type":"image-button-response","trial_index":23,"time_elapsed":74479,"internal_node_id":"0.0-2.0-0.21"},{"rt":1752,"stimulus":"images/Boat/With_Backgrounds/difficulty3_image9.png","response":0,"category":"Boat","background_difficulty":"3","image_path":"images/Boat/With_Backgrounds/difficulty3_image9.png","trial_type":"image-button-response","trial_index":24,"time_elapsed":76241,"internal_node_id":"0.0-2.0-0.22"},{"rt":1475,"stimulus":"images/Boat/With_Backgrounds/difficulty2_image6.png","response":0,"category":"Boat","background_difficulty":"2","image_path":"images/Boat/With_Backgrounds/difficulty2_image6.png","trial_type":"image-button-response","trial_index":25,"time_elapsed":77723,"internal_node_id":"0.0-2.0-0.23"},{"rt":1536,"stimulus":"images/Dog/With_Backgrounds/difficulty6_image2.png","response":4,"category":"Dog","background_difficulty":"6","image_path":"images/Dog/With_Backgrounds/difficulty6_image2.png","trial_type":"image-button-response","trial_index":26,"time_elapsed":79264,"internal_node_id":"0.0-2.0-0.24"},{"rt":1499,"stimulus":"images/Tree/With_Backgrounds/difficulty5_image5.png","response":6,"category":"Tree","background_difficulty":"5","image_path":"images/Tree/With_Backgrounds/difficulty5_image5.png","trial_type":"image-button-response","trial_index":27,"time_elapsed":80775,"internal_node_id":"0.0-2.0-0.25"},{"rt":1530,"stimulus":"images/Boat/With_Backgrounds/difficulty1_image5.png","response":0,"category":"Boat","background_difficulty":"1","image_path":"images/Boat/With_Backgrounds/difficulty1_image5.png","trial_type":"image-button-response","trial_index":28,"time_elapsed":82314,"internal_node_id":"0.0-2.0-0.26"},{"rt":1686,"stimulus":"images/Human/With_Backgrounds/difficulty2_image5.png","response":5,"category":"Human","background_difficulty":"2","image_path":"images/Human/With_Backgrounds/difficulty2_image5.png","trial_type":"image-button-response","trial_index":29,"time_elapsed":84012,"internal_node_id":"0.0-2.0-0.27"},{"rt":2206,"stimulus":"images/Other/With_Backgrounds/difficulty6_image8.png","response":7,"category":"Other","background_difficulty":"6","image_path":"images/Other/With_Backgrounds/difficulty6_image8.png","trial_type":"image-button-response","trial_index":30,"time_elapsed":86234,"internal_node_id":"0.0-2.0-0.28"},{"rt":1569,"stimulus":"images/Human/With_Backgrounds/difficulty5_image7.png","response":5,"category":"Human","background_difficulty":"5","image_path":"images/Human/With_Backgrounds/difficulty5_image7.png","trial_type":"image-button-response","trial_index":31,"time_elapsed":87818,"internal_node_id":"0.0-2.0-0.29"},{"rt":2707,"stimulus":"images/Boat/With_Backgrounds/difficulty5_image1.png","response":0,"category":"Boat","background_difficulty":"5","image_path":"images/Boat/With_Backgrounds/difficulty5_image1.png","trial_type":"image-button-response","trial_index":32,"time_elapsed":90534,"internal_node_id":"0.0-2.0-0.30"},{"rt":1782,"stimulus":"images/Car/With_Backgrounds/difficulty7_image1.png","response":2,"category":"Car","background_difficulty":"7","image_path":"images/Car/With_Backgrounds/difficulty7_image1.png","trial_type":"image-button-response","trial_index":33,"time_elapsed":92327,"internal_node_id":"0.0-2.0-0.31"},{"rt":1356,"stimulus":"images/Car/With_Backgrounds/difficulty1_image3.png","response":2,"category":"Car","background_difficulty":"1","image_path":"images/Car/With_Backgrounds/difficulty1_image3.png","trial_type":"image-button-response","trial_index":34,"time_elapsed":93693,"internal_node_id":"0.0-2.0-0.32"},{"rt":1639,"stimulus":"images/Other/With_Backgrounds/difficulty7_image5.png","response":7,"category":"Other","background_difficulty":"7","image_path":"images/Other/With_Backgrounds/difficulty7_image5.png","trial_type":"image-button-response","trial_index":35,"time_elapsed":95347,"internal_node_id":"0.0-2.0-0.33"},{"rt":2139,"stimulus":"images/Other/With_Backgrounds/difficulty0_image2.png","response":7,"category":"Other","background_difficulty":"0","image_path":"images/Other/With_Backgrounds/difficulty0_image2.png","trial_type":"image-button-response","trial_index":36,"time_elapsed":97495,"internal_node_id":"0.0-2.0-0.34"},{"rt":1487,"stimulus":"images/Tree/With_Backgrounds/difficulty4_image6.png","response":6,"category":"Tree","background_difficulty":"4","image_path":"images/Tree/With_Backgrounds/difficulty4_image6.png","trial_type":"image-button-response","trial_index":37,"time_elapsed":98993,"internal_node_id":"0.0-2.0-0.35"},{"rt":2106,"stimulus":"images/Cat/With_Backgrounds/difficulty3_image9.png","response":3,"category":"Cat","background_difficulty":"3","image_path":"images/Cat/With_Backgrounds/difficulty3_image9.png","trial_type":"image-button-response","trial_index":38,"time_elapsed":101109,"internal_node_id":"0.0-2.0-0.36"},{"rt":1421,"stimulus":"images/Human/With_Backgrounds/difficulty0_image8.png","response":5,"category":"Human","background_difficulty":"0","image_path":"images/Human/With_Backgrounds/difficulty0_image8.png","trial_type":"image-button-response","trial_index":39,"time_elapsed":102543,"internal_node_id":"0.0-2.0-0.37"},{"rt":2097,"stimulus":"images/Broccoli/With_Backgrounds/difficulty5_image7.png","response":1,"category":"Broccoli","background_difficulty":"5","image_path":"images/Broccoli/With_Backgrounds/difficulty5_image7.png","trial_type":"image-button-response","trial_index":40,"time_elapsed":104649,"internal_node_id":"0.0-2.0-0.38"},{"rt":1724,"stimulus":"images/Cat/With_Backgrounds/difficulty1_image4.png","response":3,"category":"Cat","background_difficulty":"1","image_path":"images/Cat/With_Backgrounds/difficulty1_image4.png","trial_type":"image-button-response","trial_index":41,"time_elapsed":106382,"internal_node_id":"0.0-2.0-0.39"},{"rt":2302,"stimulus":"images/Dog/With_Backgrounds/difficulty7_image0.png","response":4,"category":"Dog","background_difficulty":"7","image_path":"images/Dog/With_Backgrounds/difficulty7_image0.png","trial_type":"image-button-response","trial_index":42,"time_elapsed":108694,"internal_node_id":"0.0-2.0-0.40"},{"rt":1372,"stimulus":"images/Human/With_Backgrounds/difficulty4_image6.png","response":5,"category":"Human","background_difficulty":"4","image_path":"images/Human/With_Backgrounds/difficulty4_image6.png","trial_type":"image-button-response","trial_index":43,"time_elapsed":110080,"internal_node_id":"0.0-2.0-0.41"},{"rt":2836,"stimulus":"images/Broccoli/With_Backgrounds/difficulty7_image4.png","response":1,"category":"Broccoli","background_difficulty":"7","image_path":"images/Broccoli/With_Backgrounds/difficulty7_image4.png","trial_type":"image-button-response","trial_index":44,"time_elapsed":112928,"internal_node_id":"0.0-2.0-0.42"},{"rt":1821,"stimulus":"images/Dog/With_Backgrounds/difficulty0_image7.png","response":4,"category":"Dog","background_difficulty":"0","image_path":"images/Dog/With_Backgrounds/difficulty0_image7.png","trial_type":"image-button-response","trial_index":45,"time_elapsed":114761,"internal_node_id":"0.0-2.0-0.43"},{"rt":4812,"stimulus":"images/Boat/With_Backgrounds/difficulty0_image3.png","response":7,"category":"Boat","background_difficulty":"0","image_path":"images/Boat/With_Backgrounds/difficulty0_image3.png","trial_type":"image-button-response","trial_index":46,"time_elapsed":119583,"internal_node_id":"0.0-2.0-0.44"},{"rt":2456,"stimulus":"images/Cat/With_Backgrounds/difficulty6_image1.png","response":3,"category":"Cat","background_difficulty":"6","image_path":"images/Cat/With_Backgrounds/difficulty6_image1.png","trial_type":"image-button-response","trial_index":47,"time_elapsed":122048,"internal_node_id":"0.0-2.0-0.45"},{"rt":1481,"stimulus":"images/Human/With_Backgrounds/difficulty8_image0.png","response":5,"category":"Human","background_difficulty":"8","image_path":"images/Human/With_Backgrounds/difficulty8_image0.png","trial_type":"image-button-response","trial_index":48,"time_elapsed":123542,"internal_node_id":"0.0-2.0-0.46"},{"rt":1458,"stimulus":"images/Dog/With_Backgrounds/difficulty1_image4.png","response":4,"category":"Dog","background_difficulty":"1","image_path":"images/Dog/With_Backgrounds/difficulty1_image4.png","trial_type":"image-button-response","trial_index":49,"time_elapsed":125009,"internal_node_id":"0.0-2.0-0.47"},{"rt":1757,"stimulus":"images/Cat/With_Backgrounds/difficulty8_image7.png","response":3,"category":"Cat","background_difficulty":"8","image_path":"images/Cat/With_Backgrounds/difficulty8_image7.png","trial_type":"image-button-response","trial_index":50,"time_elapsed":126779,"internal_node_id":"0.0-2.0-0.48"},{"rt":1454,"stimulus":"images/Dog/With_Backgrounds/difficulty3_image6.png","response":4,"category":"Dog","background_difficulty":"3","image_path":"images/Dog/With_Backgrounds/difficulty3_image6.png","trial_type":"image-button-response","trial_index":51,"time_elapsed":128243,"internal_node_id":"0.0-2.0-0.49"},{"rt":1323,"stimulus":"images/Broccoli/With_Backgrounds/difficulty6_image5.png","response":1,"category":"Broccoli","background_difficulty":"6","image_path":"images/Broccoli/With_Backgrounds/difficulty6_image5.png","trial_type":"image-button-response","trial_index":52,"time_elapsed":129576,"internal_node_id":"0.0-2.0-0.50"},{"rt":2208,"stimulus":"images/Car/With_Backgrounds/difficulty0_image7.png","response":2,"category":"Car","background_difficulty":"0","image_path":"images/Car/With_Backgrounds/difficulty0_image7.png","trial_type":"image-button-response","trial_index":53,"time_elapsed":131792,"internal_node_id":"0.0-2.0-0.51"},{"rt":1729,"stimulus":"images/Boat/With_Backgrounds/difficulty8_image0.png","response":0,"category":"Boat","background_difficulty":"8","image_path":"images/Boat/With_Backgrounds/difficulty8_image0.png","trial_type":"image-button-response","trial_index":54,"time_elapsed":133534,"internal_node_id":"0.0-2.0-0.52"},{"rt":1703,"stimulus":"images/Cat/With_Backgrounds/difficulty2_image0.png","response":3,"category":"Cat","background_difficulty":"2","image_path":"images/Cat/With_Backgrounds/difficulty2_image0.png","trial_type":"image-button-response","trial_index":55,"time_elapsed":135244,"internal_node_id":"0.0-2.0-0.53"},{"rt":1590,"stimulus":"images/Boat/With_Backgrounds/difficulty7_image4.png","response":0,"category":"Boat","background_difficulty":"7","image_path":"images/Boat/With_Backgrounds/difficulty7_image4.png","trial_type":"image-button-response","trial_index":56,"time_elapsed":136844,"internal_node_id":"0.0-2.0-0.54"},{"rt":1396,"stimulus":"images/Broccoli/With_Backgrounds/difficulty3_image6.png","response":1,"category":"Broccoli","background_difficulty":"3","image_path":"images/Broccoli/With_Backgrounds/difficulty3_image6.png","trial_type":"image-button-response","trial_index":57,"time_elapsed":138250,"internal_node_id":"0.0-2.0-0.55"},{"rt":1648,"stimulus":"images/Dog/With_Backgrounds/difficulty8_image1.png","response":4,"category":"Dog","background_difficulty":"8","image_path":"images/Dog/With_Backgrounds/difficulty8_image1.png","trial_type":"image-button-response","trial_index":58,"time_elapsed":139911,"internal_node_id":"0.0-2.0-0.56"},{"rt":1288,"stimulus":"images/Human/With_Backgrounds/difficulty3_image4.png","response":5,"category":"Human","background_difficulty":"3","image_path":"images/Human/With_Backgrounds/difficulty3_image4.png","trial_type":"image-button-response","trial_index":59,"time_elapsed":141211,"internal_node_id":"0.0-2.0-0.57"},{"rt":2410,"stimulus":"images/Car/With_Backgrounds/difficulty3_image8.png","response":2,"category":"Car","background_difficulty":"3","image_path":"images/Car/With_Backgrounds/difficulty3_image8.png","trial_type":"image-button-response","trial_index":60,"time_elapsed":143630,"internal_node_id":"0.0-2.0-0.58"},{"rt":1623,"stimulus":"images/Tree/With_Backgrounds/difficulty0_image4.png","response":6,"category":"Tree","background_difficulty":"0","image_path":"images/Tree/With_Backgrounds/difficulty0_image4.png","trial_type":"image-button-response","trial_index":61,"time_elapsed":145261,"internal_node_id":"0.0-2.0-0.59"},{"rt":1440,"stimulus":"images/Dog/With_Backgrounds/difficulty4_image8.png","response":4,"category":"Dog","background_difficulty":"4","image_path":"images/Dog/With_Backgrounds/difficulty4_image8.png","trial_type":"image-button-response","trial_index":62,"time_elapsed":146712,"internal_node_id":"0.0-2.0-0.60"},{"rt":3579,"stimulus":"images/Other/With_Backgrounds/difficulty3_image9.png","response":7,"category":"Other","background_difficulty":"3","image_path":"images/Other/With_Backgrounds/difficulty3_image9.png","trial_type":"image-button-response","trial_index":63,"time_elapsed":150300,"internal_node_id":"0.0-2.0-0.61"},{"rt":2073,"stimulus":"images/Car/With_Backgrounds/difficulty8_image4.png","response":2,"category":"Car","background_difficulty":"8","image_path":"images/Car/With_Backgrounds/difficulty8_image4.png","trial_type":"image-button-response","trial_index":64,"time_elapsed":152384,"internal_node_id":"0.0-2.0-0.62"},{"rt":1452,"stimulus":"images/Car/With_Backgrounds/difficulty4_image0.png","response":2,"category":"Car","background_difficulty":"4","image_path":"images/Car/With_Backgrounds/difficulty4_image0.png","trial_type":"image-button-response","trial_index":65,"time_elapsed":153849,"internal_node_id":"0.0-2.0-0.63"},{"rt":1441,"stimulus":"images/Broccoli/With_Backgrounds/difficulty0_image0.png","response":1,"category":"Broccoli","background_difficulty":"0","image_path":"images/Broccoli/With_Backgrounds/difficulty0_image0.png","trial_type":"image-button-response","trial_index":66,"time_elapsed":155300,"internal_node_id":"0.0-2.0-0.64"},{"rt":1326,"stimulus":"images/Human/With_Backgrounds/difficulty7_image9.png","response":5,"category":"Human","background_difficulty":"7","image_path":"images/Human/With_Backgrounds/difficulty7_image9.png","trial_type":"image-button-response","trial_index":67,"time_elapsed":156639,"internal_node_id":"0.0-2.0-0.65"},{"rt":1505,"stimulus":"images/Tree/With_Backgrounds/difficulty6_image9.png","response":6,"category":"Tree","background_difficulty":"6","image_path":"images/Tree/With_Backgrounds/difficulty6_image9.png","trial_type":"image-button-response","trial_index":68,"time_elapsed":158154,"internal_node_id":"0.0-2.0-0.66"},{"rt":1351,"stimulus":"images/Tree/With_Backgrounds/difficulty8_image2.png","response":6,"category":"Tree","background_difficulty":"8","image_path":"images/Tree/With_Backgrounds/difficulty8_image2.png","trial_type":"image-button-response","trial_index":69,"time_elapsed":159518,"internal_node_id":"0.0-2.0-0.67"},{"rt":1375,"stimulus":"images/Broccoli/With_Backgrounds/difficulty1_image3.png","response":1,"category":"Broccoli","background_difficulty":"1","image_path":"images/Broccoli/With_Backgrounds/difficulty1_image3.png","trial_type":"image-button-response","trial_index":70,"time_elapsed":160903,"internal_node_id":"0.0-2.0-0.68"},{"rt":1826,"stimulus":"images/Other/With_Backgrounds/difficulty4_image7.png","response":7,"category":"Other","background_difficulty":"4","image_path":"images/Other/With_Backgrounds/difficulty4_image7.png","trial_type":"image-button-response","trial_index":71,"time_elapsed":162740,"internal_node_id":"0.0-2.0-0.69"},{"rt":1672,"stimulus":"images/Human/With_Backgrounds/difficulty1_image2.png","response":5,"category":"Human","background_difficulty":"1","image_path":"images/Human/With_Backgrounds/difficulty1_image2.png","trial_type":"image-button-response","trial_index":72,"time_elapsed":164421,"internal_node_id":"0.0-2.0-0.70"},{"rt":1507,"stimulus":"images/Dog/With_Backgrounds/difficulty5_image3.png","response":4,"category":"Dog","background_difficulty":"5","image_path":"images/Dog/With_Backgrounds/difficulty5_image3.png","trial_type":"image-button-response","trial_index":73,"time_elapsed":165939,"internal_node_id":"0.0-2.0-0.71"},{"rt":1636,"stimulus":["<h2>Press the button below to end experiment.</h2><p>Thank you for participating!</p>"],"response":0,"trial_type":"html-button-response","trial_index":74,"time_elapsed":167579,"internal_node_id":"0.0-3.0"}]