[{"success":true,"timeout":false,"failed_images":[],"failed_audio":[],"failed_video":[],"trial_type":"preload","trial_index":0,"time_elapsed":1364,"internal_node_id":"0.0-0.0"},{"rt":7447,"stimulus":["<h2>Noisy background image classification</h2><p>In this experiment you will briefly see images on top of colored squares of various sizes.</p><p>Your task is to report what each image is, selecting \"None of the Above\" if none of the given options are correct.</p> <p>The possible options are <strong>Boat</strong>, <strong>Broccoli</strong>, <strong>Car</strong>, <strong>Cat</strong>, <strong>Dog</strong>, <strong>Human</strong>, <strong>Tree</strong>, and <strong>None of the Above</strong>"],"response":0,"trial_type":"html-button-response","trial_index":1,"time_elapsed":8812,"internal_node_id":"0.0-1.0"},{"rt":1995,"stimulus":"images/Boat/With_Backgrounds/difficulty7_image5.png","response":0,"category":"Boat","background_difficulty":"7","image_path":"images/Boat/With_Backgrounds/difficulty7_image5.png","trial_type":"image-button-response","trial_index":2,"time_elapsed":10815,"internal_node_id":"0.0-2.0-0.0"},{"rt":2038,"stimulus":"images/Human/With_Backgrounds/difficulty8_image9.png","response":5,"category":"Human","background_difficulty":"8","image_path":"images/Human/With_Backgrounds/difficulty8_image9.png","trial_type":"image-button-response","trial_index":3,"time_elapsed":12861,"internal_node_id":"0.0-2.0-0.1"},{"rt":1564,"stimulus":"images/Car/With_Backgrounds/difficulty3_image1.png","response":2,"category":"Car","background_difficulty":"3","image_path":"images/Car/With_Backgrounds/difficulty3_image1.png","trial_type":"image-button-response","trial_index":4,"time_elapsed":14431,"internal_node_id":"0.0-2.0-0.2"},{"rt":1656,"stimulus":"images/Dog/With_Backgrounds/difficulty5_image7.png","response":4,"category":"Dog","background_difficulty":"5","image_path":"images/Dog/With_Backgrounds/difficulty5_image7.png","trial_type":"image-button-response","trial_index":5,"time_elapsed":16092,"internal_node_id":"0.0-2.0-0.3"},{"rt":1196,"stimulus":"images/Cat/With_Backgrounds/difficulty7_image4.png","response":3,"category":"Cat","background_difficulty":"7","image_path":"images/Cat/With_Backgrounds/difficulty7_image4.png","trial_type":"image-button-response","trial_index":6,"time_elapsed":17294,"internal_node_id":"0.0-2.0-0.4"},{"rt":1353,"stimulus":"images/Human/With_Backgrounds/difficulty0_image1.png","response":5,"category":"Human","background_difficulty":"0","image_path":"images/Human/With_Backgrounds/difficulty0_image1.png","trial_type":"image-button-response","trial_index":7,"time_elapsed":18653,"internal_node_id":"0.0-2.0-0.5"},{"rt":2084,"stimulus":"images/Dog/With_Backgrounds/difficulty3_image1.png","response":4,"category":"Dog","background_difficulty":"3","image_path":"images/Dog/With_Backgrounds/difficulty3_image1.png","trial_type":"image-button-response","trial_index":8,"time_elapsed":20744,"internal_node_id":"0.0-2.0-0.6"},{"rt":3301,"stimulus":"images/Other/With_Backgrounds/difficulty1_image9.png","response":7,"category":"Other","background_difficulty":"1","image_path":"images/Other/With_Backgrounds/difficulty1_image9.png","trial_type":"image-button-response","trial_index":9,"time_elapsed":24050,"internal_node_id":"0.0-2.0-0.7"},{"rt":4409,"stimulus":"images/Other/With_Backgrounds/difficulty3_image5.png","response":7,"category":"Other","background_difficulty":"3","image_path":"images/Other/With_Backgrounds/difficulty3_image5.png","trial_type":"image-button-response","trial_index":10,"time_elapsed":28465,"internal_node_id":"0.0-2.0-0.8"},{"rt":2026,"stimulus":"images/Car/With_Backgrounds/difficulty8_image2.png","response":2,"category":"Car","background_difficulty":"8","image_path":"images/Car/With_Backgrounds/difficulty8_image2.png","trial_type":"image-button-response","trial_index":11,"time_elapsed":30498,"internal_node_id":"0.0-2.0-0.9"},{"rt":2381,"stimulus":"images/Broccoli/With_Backgrounds/difficulty6_image8.png","response":1,"category":"Broccoli","background_difficulty":"6","image_path":"images/Broccoli/With_Backgrounds/difficulty6_image8.png","trial_type":"image-button-response","trial_index":12,"time_elapsed":32885,"internal_node_id":"0.0-2.0-0.10"},{"rt":2187,"stimulus":"images/Broccoli/With_Backgrounds/difficulty5_image9.png","response":1,"category":"Broccoli","background_difficulty":"5","image_path":"images/Broccoli/With_Backgrounds/difficulty5_image9.png","trial_type":"image-button-response","trial_index":13,"time_elapsed":35077,"internal_node_id":"0.0-2.0-0.11"},{"rt":2546,"stimulus":"images/Human/With_Backgrounds/difficulty1_image6.png","response":5,"category":"Human","background_difficulty":"1","image_path":"images/Human/With_Backgrounds/difficulty1_image6.png","trial_type":"image-button-response","trial_index":14,"time_elapsed":37630,"internal_node_id":"0.0-2.0-0.12"},{"rt":1822,"stimulus":"images/Broccoli/With_Backgrounds/difficulty8_image2.png","response":1,"category":"Broccoli","background_difficulty":"8","image_path":"images/Broccoli/With_Backgrounds/difficulty8_image2.png","trial_type":"image-button-response","trial_index":15,"time_elapsed":39459,"internal_node_id":"0.0-2.0-0.13"},{"rt":1817,"stimulus":"images/Boat/With_Backgrounds/difficulty6_image6.png","response":0,"category":"Boat","background_difficulty":"6","image_path":"images/Boat/With_Backgrounds/difficulty6_image6.png","trial_type":"image-button-response","trial_index":16,"time_elapsed":41280,"internal_node_id":"0.0-2.0-0.14"},{"rt":2112,"stimulus":"images/Cat/With_Backgrounds/difficulty5_image0.png","response":3,"category":"Cat","background_difficulty":"5","image_path":"images/Cat/With_Backgrounds/difficulty5_image0.png","trial_type":"image-button-response","trial_index":17,"time_elapsed":43399,"internal_node_id":"0.0-2.0-0.15"},{"rt":1536,"stimulus":"images/Human/With_Backgrounds/difficulty5_image8.png","response":5,"category":"Human","background_difficulty":"5","image_path":"images/Human/With_Backgrounds/difficulty5_image8.png","trial_type":"image-button-response","trial_index":18,"time_elapsed":44940,"internal_node_id":"0.0-2.0-0.16"},{"rt":1501,"stimulus":"images/Dog/With_Backgrounds/difficulty8_image9.png","response":4,"category":"Dog","background_difficulty":"8","image_path":"images/Dog/With_Backgrounds/difficulty8_image9.png","trial_type":"image-button-response","trial_index":19,"time_elapsed":46448,"internal_node_id":"0.0-2.0-0.17"},{"rt":1167,"stimulus":"images/Dog/With_Backgrounds/difficulty2_image3.png","response":4,"category":"Dog","background_difficulty":"2","image_path":"images/Dog/With_Backgrounds/difficulty2_image3.png","trial_type":"image-button-response","trial_index":20,"time_elapsed":47621,"internal_node_id":"0.0-2.0-0.18"},{"rt":2999,"stimulus":"images/Other/With_Backgrounds/difficulty8_image7.png","response":7,"category":"Other","background_difficulty":"8","image_path":"images/Other/With_Backgrounds/difficulty8_image7.png","trial_type":"image-button-response","trial_index":21,"time_elapsed":50627,"internal_node_id":"0.0-2.0-0.19"},{"rt":2555,"stimulus":"images/Boat/With_Backgrounds/difficulty0_image4.png","response":0,"category":"Boat","background_difficulty":"0","image_path":"images/Boat/With_Backgrounds/difficulty0_image4.png","trial_type":"image-button-response","trial_index":22,"time_elapsed":53188,"internal_node_id":"0.0-2.0-0.20"},{"rt":1856,"stimulus":"images/Car/With_Backgrounds/difficulty0_image9.png","response":2,"category":"Car","background_difficulty":"0","image_path":"images/Car/With_Backgrounds/difficulty0_image9.png","trial_type":"image-button-response","trial_index":23,"time_elapsed":55049,"internal_node_id":"0.0-2.0-0.21"},{"rt":1030,"stimulus":"images/Car/With_Backgrounds/difficulty6_image0.png","response":2,"category":"Car","background_difficulty":"6","image_path":"images/Car/With_Backgrounds/difficulty6_image0.png","trial_type":"image-button-response","trial_index":24,"time_elapsed":56084,"internal_node_id":"0.0-2.0-0.22"},{"rt":1515,"stimulus":"images/Boat/With_Backgrounds/difficulty2_image9.png","response":0,"category":"Boat","background_difficulty":"2","image_path":"images/Boat/With_Backgrounds/difficulty2_image9.png","trial_type":"image-button-response","trial_index":25,"time_elapsed":57605,"internal_node_id":"0.0-2.0-0.23"},{"rt":1650,"stimulus":"images/Human/With_Backgrounds/difficulty3_image7.png","response":5,"category":"Human","background_difficulty":"3","image_path":"images/Human/With_Backgrounds/difficulty3_image7.png","trial_type":"image-button-response","trial_index":26,"time_elapsed":59260,"internal_node_id":"0.0-2.0-0.24"},{"rt":1437,"stimulus":"images/Tree/With_Backgrounds/difficulty2_image0.png","response":6,"category":"Tree","background_difficulty":"2","image_path":"images/Tree/With_Backgrounds/difficulty2_image0.png","trial_type":"image-button-response","trial_index":27,"time_elapsed":60703,"internal_node_id":"0.0-2.0-0.25"},{"rt":1378,"stimulus":"images/Human/With_Backgrounds/difficulty4_image4.png","response":5,"category":"Human","background_difficulty":"4","image_path":"images/Human/With_Backgrounds/difficulty4_image4.png","trial_type":"image-button-response","trial_index":28,"time_elapsed":62089,"internal_node_id":"0.0-2.0-0.26"},{"rt":1292,"stimulus":"images/Dog/With_Backgrounds/difficulty1_image2.png","response":4,"category":"Dog","background_difficulty":"1","image_path":"images/Dog/With_Backgrounds/difficulty1_image2.png","trial_type":"image-button-response","trial_index":29,"time_elapsed":63387,"internal_node_id":"0.0-2.0-0.27"},{"rt":1425,"stimulus":"images/Broccoli/With_Backgrounds/difficulty2_image4.png","response":1,"category":"Broccoli","background_difficulty":"2","image_path":"images/Broccoli/With_Backgrounds/difficulty2_image4.png","trial_type":"image-button-response","trial_index":30,"time_elapsed":64819,"internal_node_id":"0.0-2.0-0.28"},{"rt":1079,"stimulus":"images/Broccoli/With_Backgrounds/difficulty7_image7.png","response":1,"category":"Broccoli","background_difficulty":"7","image_path":"images/Broccoli/With_Backgrounds/difficulty7_image7.png","trial_type":"image-button-response","trial_index":31,"time_elapsed":65903,"internal_node_id":"0.0-2.0-0.29"},{"rt":2113,"stimulus":"images/Car/With_Backgrounds/difficulty7_image3.png","response":2,"category":"Car","background_difficulty":"7","image_path":"images/Car/With_Backgrounds/difficulty7_image3.png","trial_type":"image-button-response","trial_index":32,"time_elapsed":68023,"internal_node_id":"0.0-2.0-0.30"},{"rt":898,"stimulus":"images/Car/With_Backgrounds/difficulty1_image6.png","response":2,"category":"Car","background_difficulty":"1","image_path":"images/Car/With_Backgrounds/difficulty1_image6.png","trial_type":"image-button-response","trial_index":33,"time_elapsed":68928,"internal_node_id":"0.0-2.0-0.31"},{"rt":1150,"stimulus":"images/Car/With_Backgrounds/difficulty5_image8.png","response":2,"category":"Car","background_difficulty":"5","image_path":"images/Car/With_Backgrounds/difficulty5_image8.png","trial_type":"image-button-response","trial_index":34,"time_elapsed":70084,"internal_node_id":"0.0-2.0-0.32"},{"rt":2047,"stimulus":"images/Dog/With_Backgrounds/difficulty7_image8.png","response":4,"category":"Dog","background_difficulty":"7","image_path":"images/Dog/With_Backgrounds/difficulty7_image8.png","trial_type":"image-button-response","trial_index":35,"time_elapsed":72139,"internal_node_id":"0.0-2.0-0.33"},{"rt":1453,"stimulus":"images/Broccoli/With_Backgrounds/difficulty4_image6.png","response":1,"category":"Broccoli","background_difficulty":"4","image_path":"images/Broccoli/With_Backgrounds/difficulty4_image6.png","trial_type":"image-button-response","trial_index":36,"time_elapsed":73598,"internal_node_id":"0.0-2.0-0.34"},{"rt":1457,"stimulus":"images/Car/With_Backgrounds/difficulty2_image4.png","response":2,"category":"Car","background_difficulty":"2","image_path":"images/Car/With_Backgrounds/difficulty2_image4.png","trial_type":"image-button-response","trial_index":37,"time_elapsed":75059,"internal_node_id":"0.0-2.0-0.35"},{"rt":1556,"stimulus":"images/Tree/With_Backgrounds/difficulty5_image8.png","response":6,"category":"Tree","background_difficulty":"5","image_path":"images/Tree/With_Backgrounds/difficulty5_image8.png","trial_type":"image-button-response","trial_index":38,"time_elapsed":76621,"internal_node_id":"0.0-2.0-0.36"},{"rt":1519,"stimulus":"images/Cat/With_Backgrounds/difficulty8_image8.png","response":3,"category":"Cat","background_difficulty":"8","image_path":"images/Cat/With_Backgrounds/difficulty8_image8.png","trial_type":"image-button-response","trial_index":39,"time_elapsed":78147,"internal_node_id":"0.0-2.0-0.37"},{"rt":928,"stimulus":"images/Cat/With_Backgrounds/difficulty0_image5.png","response":3,"category":"Cat","background_difficulty":"0","image_path":"images/Cat/With_Backgrounds/difficulty0_image5.png","trial_type":"image-button-response","trial_index":40,"time_elapsed":79080,"internal_node_id":"0.0-2.0-0.38"},{"rt":1619,"stimulus":"images/Other/With_Backgrounds/difficulty0_image2.png","response":7,"category":"Other","background_difficulty":"0","image_path":"images/Other/With_Backgrounds/difficulty0_image2.png","trial_type":"image-button-response","trial_index":41,"time_elapsed":80703,"internal_node_id":"0.0-2.0-0.39"},{"rt":1153,"stimulus":"images/Human/With_Backgrounds/difficulty7_image3.png","response":5,"category":"Human","background_difficulty":"7","image_path":"images/Human/With_Backgrounds/difficulty7_image3.png","trial_type":"image-button-response","trial_index":42,"time_elapsed":81861,"internal_node_id":"0.0-2.0-0.40"},{"rt":1210,"stimulus":"images/Tree/With_Backgrounds/difficulty4_image9.png","response":6,"category":"Tree","background_difficulty":"4","image_path":"images/Tree/With_Backgrounds/difficulty4_image9.png","trial_type":"image-button-response","trial_index":43,"time_elapsed":83076,"internal_node_id":"0.0-2.0-0.41"},{"rt":1339,"stimulus":"images/Broccoli/With_Backgrounds/difficulty1_image3.png","response":1,"category":"Broccoli","background_difficulty":"1","image_path":"images/Broccoli/With_Backgrounds/difficulty1_image3.png","trial_type":"image-button-response","trial_index":44,"time_elapsed":84421,"internal_node_id":"0.0-2.0-0.42"},{"rt":2039,"stimulus":"images/Boat/With_Backgrounds/difficulty8_image2.png","response":0,"category":"Boat","background_difficulty":"8","image_path":"images/Boat/With_Backgrounds/difficulty8_image2.png","trial_type":"image-button-response","trial_index":45,"time_elapsed":86468,"internal_node_id":"0.0-2.0-0.43"},{"rt":1887,"stimulus":"images/Other/With_Backgrounds/difficulty6_image8.png","response":7,"category":"Other","background_difficulty":"6","image_path":"images/Other/With_Backgrounds/difficulty6_image8.png","trial_type":"image-button-response","trial_index":46,"time_elapsed":88361,"internal_node_id":"0.0-2.0-0.44"},{"rt":1242,"stimulus":"images/Tree/With_Backgrounds/difficulty3_image4.png","response":6,"category":"Tree","background_difficulty":"3","image_path":"images/Tree/With_Backgrounds/difficulty3_image4.png","trial_type":"image-button-response","trial_index":47,"time_elapsed":89607,"internal_node_id":"0.0-2.0-0.45"},{"rt":2566,"stimulus":"images/Other/With_Backgrounds/difficulty7_image6.png","response":7,"category":"Other","background_difficulty":"7","image_path":"images/Other/With_Backgrounds/difficulty7_image6.png","trial_type":"image-button-response","trial_index":48,"time_elapsed":92178,"internal_node_id":"0.0-2.0-0.46"},{"rt":1519,"stimulus":"images/Other/With_Backgrounds/difficulty4_image3.png","response":7,"category":"Other","background_difficulty":"4","image_path":"images/Other/With_Backgrounds/difficulty4_image3.png","trial_type":"image-button-response","trial_index":49,"time_elapsed":93703,"internal_node_id":"0.0-2.0-0.47"},{"rt":1269,"stimulus":"images/Other/With_Backgrounds/difficulty2_image4.png","response":7,"category":"Other","background_difficulty":"2","image_path":"images/Other/With_Backgrounds/difficulty2_image4.png","trial_type":"image-button-response","trial_index":50,"time_elapsed":94977,"internal_node_id":"0.0-2.0-0.48"},{"rt":1805,"stimulus":"images/Cat/With_Backgrounds/difficulty1_image1.png","response":3,"category":"Cat","background_difficulty":"1","image_path":"images/Cat/With_Backgrounds/difficulty1_image1.png","trial_type":"image-button-response","trial_index":51,"time_elapsed":96787,"internal_node_id":"0.0-2.0-0.49"},{"rt":1289,"stimulus":"images/Tree/With_Backgrounds/difficulty8_image6.png","response":6,"category":"Tree","background_difficulty":"8","image_path":"images/Tree/With_Backgrounds/difficulty8_image6.png","trial_type":"image-button-response","trial_index":52,"time_elapsed":98083,"internal_node_id":"0.0-2.0-0.50"},{"rt":1421,"stimulus":"images/Dog/With_Backgrounds/difficulty6_image5.png","response":4,"category":"Dog","background_difficulty":"6","image_path":"images/Dog/With_Backgrounds/difficulty6_image5.png","trial_type":"image-button-response","trial_index":53,"time_elapsed":99510,"internal_node_id":"0.0-2.0-0.51"},{"rt":1038,"stimulus":"images/Dog/With_Backgrounds/difficulty0_image0.png","response":4,"category":"Dog","background_difficulty":"0","image_path":"images/Dog/With_Backgrounds/difficulty0_image0.png","trial_type":"image-button-response","trial_index":54,"time_elapsed":100554,"internal_node_id":"0.0-2.0-0.52"},{"rt":1353,"stimulus":"images/Tree/With_Backgrounds/difficulty6_image2.png","response":6,"category":"Tree","background_difficulty":"6","image_path":"images/Tree/With_Backgrounds/difficulty6_image2.png","trial_type":"image-button-response","trial_index":55,"time_elapsed":101913,"internal_node_id":"0.0-2.0-0.53"},{"rt":1391,"stimulus":"images/Broccoli/With_Backgrounds/difficulty0_image5.png","response":1,"category":"Broccoli","background_difficulty":"0","image_path":"images/Broccoli/With_Backgrounds/difficulty0_image5.png","trial_type":"image-button-response","trial_index":56,"time_elapsed":103309,"internal_node_id":"0.0-2.0-0.54"},{"rt":1468,"stimulus":"images/Boat/With_Backgrounds/difficulty4_image7.png","response":0,"category":"Boat","background_difficulty":"4","image_path":"images/Boat/With_Backgrounds/difficulty4_image7.png","trial_type":"image-button-response","trial_index":57,"time_elapsed":104781,"internal_node_id":"0.0-2.0-0.55"},{"rt":1322,"stimulus":"images/Cat/With_Backgrounds/difficulty6_image6.png","response":3,"category":"Cat","background_difficulty":"6","image_path":"images/Cat/With_Backgrounds/difficulty6_image6.png","trial_type":"image-button-response","trial_index":58,"time_elapsed":106109,"internal_node_id":"0.0-2.0-0.56"},{"rt":1417,"stimulus":"images/Tree/With_Backgrounds/difficulty1_image1.png","response":6,"category":"Tree","background_difficulty":"1","image_path":"images/Tree/With_Backgrounds/difficulty1_image1.png","trial_type":"image-button-response","trial_index":59,"time_elapsed":107530,"internal_node_id":"0.0-2.0-0.57"},{"rt":1690,"stimulus":"images/Car/With_Backgrounds/difficulty4_image5.png","response":2,"category":"Car","background_difficulty":"4","image_path":"images/Car/With_Backgrounds/difficulty4_image5.png","trial_type":"image-button-response","trial_index":60,"time_elapsed":109226,"internal_node_id":"0.0-2.0-0.58"},{"rt":1311,"stimulus":"images/Tree/With_Backgrounds/difficulty7_image5.png","response":6,"category":"Tree","background_difficulty":"7","image_path":"images/Tree/With_Backgrounds/difficulty7_image5.png","trial_type":"image-button-response","trial_index":61,"time_elapsed":110543,"internal_node_id":"0.0-2.0-0.59"},{"rt":1139,"stimulus":"images/Dog/With_Backgrounds/difficulty4_image6.png","response":4,"category":"Dog","background_difficulty":"4","image_path":"images/Dog/With_Backgrounds/difficulty4_image6.png","trial_type":"image-button-response","trial_index":62,"time_elapsed":111688,"internal_node_id":"0.0-2.0-0.60"},{"rt":1166,"stimulus":"images/Human/With_Backgrounds/difficulty2_image5.png","response":5,"category":"Human","background_difficulty":"2","image_path":"images/Human/With_Backgrounds/difficulty2_image5.png","trial_type":"image-button-response","trial_index":63,"time_elapsed":112860,"internal_node_id":"0.0-2.0-0.61"},{"rt":1681,"stimulus":"images/Boat/With_Backgrounds/difficulty5_image1.png","response":0,"category":"Boat","background_difficulty":"5","image_path":"images/Boat/With_Backgrounds/difficulty5_image1.png","trial_type":"image-button-response","trial_index":64,"time_elapsed":114546,"internal_node_id":"0.0-2.0-0.62"},{"rt":1249,"stimulus":"images/Boat/With_Backgrounds/difficulty1_image0.png","response":0,"category":"Boat","background_difficulty":"1","image_path":"images/Boat/With_Backgrounds/difficulty1_image0.png","trial_type":"image-button-response","trial_index":65,"time_elapsed":115801,"internal_node_id":"0.0-2.0-0.63"},{"rt":1257,"stimulus":"images/Human/With_Backgrounds/difficulty6_image2.png","response":5,"category":"Human","background_difficulty":"6","image_path":"images/Human/With_Backgrounds/difficulty6_image2.png","trial_type":"image-button-response","trial_index":66,"time_elapsed":117065,"internal_node_id":"0.0-2.0-0.64"},{"rt":1222,"stimulus":"images/Broccoli/With_Backgrounds/difficulty3_image1.png","response":1,"category":"Broccoli","background_difficulty":"3","image_path":"images/Broccoli/With_Backgrounds/difficulty3_image1.png","trial_type":"image-button-response","trial_index":67,"time_elapsed":118296,"internal_node_id":"0.0-2.0-0.65"},{"rt":1394,"stimulus":"images/Cat/With_Backgrounds/difficulty3_image2.png","response":3,"category":"Cat","background_difficulty":"3","image_path":"images/Cat/With_Backgrounds/difficulty3_image2.png","trial_type":"image-button-response","trial_index":68,"time_elapsed":119697,"internal_node_id":"0.0-2.0-0.66"},{"rt":1449,"stimulus":"images/Other/With_Backgrounds/difficulty5_image0.png","response":7,"category":"Other","background_difficulty":"5","image_path":"images/Other/With_Backgrounds/difficulty5_image0.png","trial_type":"image-button-response","trial_index":69,"time_elapsed":121151,"internal_node_id":"0.0-2.0-0.67"},{"rt":1395,"stimulus":"images/Boat/With_Backgrounds/difficulty3_image8.png","response":0,"category":"Boat","background_difficulty":"3","image_path":"images/Boat/With_Backgrounds/difficulty3_image8.png","trial_type":"image-button-response","trial_index":70,"time_elapsed":122551,"internal_node_id":"0.0-2.0-0.68"},{"rt":1411,"stimulus":"images/Cat/With_Backgrounds/difficulty4_image7.png","response":3,"category":"Cat","background_difficulty":"4","image_path":"images/Cat/With_Backgrounds/difficulty4_image7.png","trial_type":"image-button-response","trial_index":71,"time_elapsed":123969,"internal_node_id":"0.0-2.0-0.69"},{"rt":1324,"stimulus":"images/Tree/With_Backgrounds/difficulty0_image3.png","response":6,"category":"Tree","background_difficulty":"0","image_path":"images/Tree/With_Backgrounds/difficulty0_image3.png","trial_type":"image-button-response","trial_index":72,"time_elapsed":125298,"internal_node_id":"0.0-2.0-0.70"},{"rt":1413,"stimulus":"images/Cat/With_Backgrounds/difficulty2_image3.png","response":3,"category":"Cat","background_difficulty":"2","image_path":"images/Cat/With_Backgrounds/difficulty2_image3.png","trial_type":"image-button-response","trial_index":73,"time_elapsed":126717,"internal_node_id":"0.0-2.0-0.71"},{"rt":1025,"stimulus":["<h2>Press the button below to end experiment.</h2><p>Thank you for participating!</p>"],"response":0,"trial_type":"html-button-response","trial_index":74,"time_elapsed":127743,"internal_node_id":"0.0-3.0"}]