[{"success":true,"timeout":false,"failed_images":[],"failed_audio":[],"failed_video":[],"trial_type":"preload","trial_index":0,"time_elapsed":1664,"internal_node_id":"0.0-0.0"},{"rt":1340,"stimulus":["<h2>Noisy background image classification</h2><p>In this experiment you will briefly see images on top of colored squares of various sizes.</p><p>Your task is to report what each image is, selecting \"None of the Above\" if none of the given options are correct.</p> <p>The possible options are <strong>Boat</strong>, <strong>Broccoli</strong>, <strong>Car</strong>, <strong>Cat</strong>, <strong>Dog</strong>, <strong>Human</strong>, <strong>Tree</strong>, and <strong>None of the Above</strong>"],"response":0,"trial_type":"html-button-response","trial_index":1,"time_elapsed":3006,"internal_node_id":"0.0-1.0"},{"rt":2215,"stimulus":"images/Cat/With_Backgrounds/difficulty8_image9.png","response":3,"category":"Cat","background_difficulty":"8","image_path":"images/Cat/With_Backgrounds/difficulty8_image9.png","trial_type":"image-button-response","trial_index":2,"time_elapsed":5234,"internal_node_id":"0.0-2.0-0.0"},{"rt":4231,"stimulus":"images/Other/With_Backgrounds/difficulty5_image9.png","response":7,"category":"Other","background_difficulty":"5","image_path":"images/Other/With_Backgrounds/difficulty5_image9.png","trial_type":"image-button-response","trial_index":3,"time_elapsed":9468,"internal_node_id":"0.0-2.0-0.1"},{"rt":1633,"stimulus":"images/Car/With_Backgrounds/difficulty7_image0.png","response":2,"category":"Car","background_difficulty":"7","image_path":"images/Car/With_Backgrounds/difficulty7_image0.png","trial_type":"image-button-response","trial_index":4,"time_elapsed":11104,"internal_node_id":"0.0-2.0-0.2"},{"rt":2657,"stimulus":"images/Other/With_Backgrounds/difficulty2_image0.png","response":7,"category":"Other","background_difficulty":"2","image_path":"images/Other/With_Backgrounds/difficulty2_image0.png","trial_type":"image-button-response","trial_index":5,"time_elapsed":13765,"internal_node_id":"0.0-2.0-0.3"},{"rt":2098,"stimulus":"images/Boat/With_Backgrounds/difficulty8_image9.png","response":0,"category":"Boat","background_difficulty":"8","image_path":"images/Boat/With_Backgrounds/difficulty8_image9.png","trial_type":"image-button-response","trial_index":6,"time_elapsed":15868,"internal_node_id":"0.0-2.0-0.4"},{"rt":3458,"stimulus":"images/Other/With_Backgrounds/difficulty1_image4.png","response":7,"category":"Other","background_difficulty":"1","image_path":"images/Other/With_Backgrounds/difficulty1_image4.png","trial_type":"image-button-response","trial_index":7,"time_elapsed":19330,"internal_node_id":"0.0-2.0-0.5"},{"rt":1727,"stimulus":"images/Dog/With_Backgrounds/difficulty4_image0.png","response":4,"category":"Dog","background_difficulty":"4","image_path":"images/Dog/With_Backgrounds/difficulty4_image0.png","trial_type":"image-button-response","trial_index":8,"time_elapsed":21063,"internal_node_id":"0.0-2.0-0.6"},{"rt":1045,"stimulus":"images/Dog/With_Backgrounds/difficulty1_image5.png","response":4,"category":"Dog","background_difficulty":"1","image_path":"images/Dog/With_Backgrounds/difficulty1_image5.png","trial_type":"image-button-response","trial_index":9,"time_elapsed":22115,"internal_node_id":"0.0-2.0-0.7"},{"rt":1017,"stimulus":"images/Dog/With_Backgrounds/difficulty7_image2.png","response":4,"category":"Dog","background_difficulty":"7","image_path":"images/Dog/With_Backgrounds/difficulty7_image2.png","trial_type":"image-button-response","trial_index":10,"time_elapsed":23140,"internal_node_id":"0.0-2.0-0.8"},{"rt":1532,"stimulus":"images/Tree/With_Backgrounds/difficulty1_image6.png","response":6,"category":"Tree","background_difficulty":"1","image_path":"images/Tree/With_Backgrounds/difficulty1_image6.png","trial_type":"image-button-response","trial_index":11,"time_elapsed":24679,"internal_node_id":"0.0-2.0-0.9"},{"rt":1538,"stimulus":"images/Cat/With_Backgrounds/difficulty4_image2.png","response":3,"category":"Cat","background_difficulty":"4","image_path":"images/Cat/With_Backgrounds/difficulty4_image2.png","trial_type":"image-button-response","trial_index":12,"time_elapsed":26224,"internal_node_id":"0.0-2.0-0.10"},{"rt":1909,"stimulus":"images/Dog/With_Backgrounds/difficulty3_image3.png","response":4,"category":"Dog","background_difficulty":"3","image_path":"images/Dog/With_Backgrounds/difficulty3_image3.png","trial_type":"image-button-response","trial_index":13,"time_elapsed":28139,"internal_node_id":"0.0-2.0-0.11"},{"rt":1350,"stimulus":"images/Tree/With_Backgrounds/difficulty8_image3.png","response":6,"category":"Tree","background_difficulty":"8","image_path":"images/Tree/With_Backgrounds/difficulty8_image3.png","trial_type":"image-button-response","trial_index":14,"time_elapsed":29497,"internal_node_id":"0.0-2.0-0.12"},{"rt":2443,"stimulus":"images/Other/With_Backgrounds/difficulty4_image7.png","response":7,"category":"Other","background_difficulty":"4","image_path":"images/Other/With_Backgrounds/difficulty4_image7.png","trial_type":"image-button-response","trial_index":15,"time_elapsed":31948,"internal_node_id":"0.0-2.0-0.13"},{"rt":1682,"stimulus":"images/Tree/With_Backgrounds/difficulty2_image4.png","response":6,"category":"Tree","background_difficulty":"2","image_path":"images/Tree/With_Backgrounds/difficulty2_image4.png","trial_type":"image-button-response","trial_index":16,"time_elapsed":33634,"internal_node_id":"0.0-2.0-0.14"},{"rt":1365,"stimulus":"images/Dog/With_Backgrounds/difficulty0_image4.png","response":4,"category":"Dog","background_difficulty":"0","image_path":"images/Dog/With_Backgrounds/difficulty0_image4.png","trial_type":"image-button-response","trial_index":17,"time_elapsed":35006,"internal_node_id":"0.0-2.0-0.15"},{"rt":1121,"stimulus":"images/Cat/With_Backgrounds/difficulty3_image8.png","response":3,"category":"Cat","background_difficulty":"3","image_path":"images/Cat/With_Backgrounds/difficulty3_image8.png","trial_type":"image-button-response","trial_index":18,"time_elapsed":36133,"internal_node_id":"0.0-2.0-0.16"},{"rt":1635,"stimulus":"images/Broccoli/With_Backgrounds/difficulty7_image2.png","response":1,"category":"Broccoli","background_difficulty":"7","image_path":"images/Broccoli/With_Backgrounds/difficulty7_image2.png","trial_type":"image-button-response","trial_index":19,"time_elapsed":37777,"internal_node_id":"0.0-2.0-0.17"},{"rt":1414,"stimulus":"images/Tree/With_Backgrounds/difficulty3_image2.png","response":6,"category":"Tree","background_difficulty":"3","image_path":"images/Tree/With_Backgrounds/difficulty3_image2.png","trial_type":"image-button-response","trial_index":20,"time_elapsed":39198,"internal_node_id":"0.0-2.0-0.18"},{"rt":1169,"stimulus":"images/Tree/With_Backgrounds/difficulty7_image5.png","response":6,"category":"Tree","background_difficulty":"7","image_path":"images/Tree/With_Backgrounds/difficulty7_image5.png","trial_type":"image-button-response","trial_index":21,"time_elapsed":40375,"internal_node_id":"0.0-2.0-0.19"},{"rt":1395,"stimulus":"images/Boat/With_Backgrounds/difficulty2_image2.png","response":0,"category":"Boat","background_difficulty":"2","image_path":"images/Boat/With_Backgrounds/difficulty2_image2.png","trial_type":"image-button-response","trial_index":22,"time_elapsed":41775,"internal_node_id":"0.0-2.0-0.20"},{"rt":1231,"stimulus":"images/Other/With_Backgrounds/difficulty3_image5.png","response":7,"category":"Other","background_difficulty":"3","image_path":"images/Other/With_Backgrounds/difficulty3_image5.png","trial_type":"image-button-response","trial_index":23,"time_elapsed":43014,"internal_node_id":"0.0-2.0-0.21"},{"rt":1465,"stimulus":"images/Boat/With_Backgrounds/difficulty4_image4.png","response":0,"category":"Boat","background_difficulty":"4","image_path":"images/Boat/With_Backgrounds/difficulty4_image4.png","trial_type":"image-button-response","trial_index":24,"time_elapsed":44484,"internal_node_id":"0.0-2.0-0.22"},{"rt":1517,"stimulus":"images/Broccoli/With_Backgrounds/difficulty2_image1.png","response":1,"category":"Broccoli","background_difficulty":"2","image_path":"images/Broccoli/With_Backgrounds/difficulty2_image1.png","trial_type":"image-button-response","trial_index":25,"time_elapsed":46009,"internal_node_id":"0.0-2.0-0.23"},{"rt":1205,"stimulus":"images/Human/With_Backgrounds/difficulty4_image9.png","response":5,"category":"Human","background_difficulty":"4","image_path":"images/Human/With_Backgrounds/difficulty4_image9.png","trial_type":"image-button-response","trial_index":26,"time_elapsed":47220,"internal_node_id":"0.0-2.0-0.24"},{"rt":1345,"stimulus":"images/Cat/With_Backgrounds/difficulty5_image4.png","response":3,"category":"Cat","background_difficulty":"5","image_path":"images/Cat/With_Backgrounds/difficulty5_image4.png","trial_type":"image-button-response","trial_index":27,"time_elapsed":48572,"internal_node_id":"0.0-2.0-0.25"},{"rt":1552,"stimulus":"images/Broccoli/With_Backgrounds/difficulty8_image9.png","response":1,"category":"Broccoli","background_difficulty":"8","image_path":"images/Broccoli/With_Backgrounds/difficulty8_image9.png","trial_type":"image-button-response","trial_index":28,"time_elapsed":50131,"internal_node_id":"0.0-2.0-0.26"},{"rt":1038,"stimulus":"images/Human/With_Backgrounds/difficulty3_image5.png","response":5,"category":"Human","background_difficulty":"3","image_path":"images/Human/With_Backgrounds/difficulty3_image5.png","trial_type":"image-button-response","trial_index":29,"time_elapsed":51176,"internal_node_id":"0.0-2.0-0.27"},{"rt":1094,"stimulus":"images/Cat/With_Backgrounds/difficulty0_image6.png","response":3,"category":"Cat","background_difficulty":"0","image_path":"images/Cat/With_Backgrounds/difficulty0_image6.png","trial_type":"image-button-response","trial_index":30,"time_elapsed":52276,"internal_node_id":"0.0-2.0-0.28"},{"rt":2421,"stimulus":"images/Human/With_Backgrounds/difficulty8_image0.png","response":5,"category":"Human","background_difficulty":"8","image_path":"images/Human/With_Backgrounds/difficulty8_image0.png","trial_type":"image-button-response","trial_index":31,"time_elapsed":54706,"internal_node_id":"0.0-2.0-0.29"},{"rt":1192,"stimulus":"images/Boat/With_Backgrounds/difficulty0_image6.png","response":0,"category":"Boat","background_difficulty":"0","image_path":"images/Boat/With_Backgrounds/difficulty0_image6.png","trial_type":"image-button-response","trial_index":32,"time_elapsed":55904,"internal_node_id":"0.0-2.0-0.30"},{"rt":1106,"stimulus":"images/Human/With_Backgrounds/difficulty7_image4.png","response":5,"category":"Human","background_difficulty":"7","image_path":"images/Human/With_Backgrounds/difficulty7_image4.png","trial_type":"image-button-response","trial_index":33,"time_elapsed":57019,"internal_node_id":"0.0-2.0-0.31"},{"rt":1331,"stimulus":"images/Car/With_Backgrounds/difficulty6_image6.png","response":2,"category":"Car","background_difficulty":"6","image_path":"images/Car/With_Backgrounds/difficulty6_image6.png","trial_type":"image-button-response","trial_index":34,"time_elapsed":58355,"internal_node_id":"0.0-2.0-0.32"},{"rt":1346,"stimulus":"images/Other/With_Backgrounds/difficulty0_image6.png","response":7,"category":"Other","background_difficulty":"0","image_path":"images/Other/With_Backgrounds/difficulty0_image6.png","trial_type":"image-button-response","trial_index":35,"time_elapsed":59707,"internal_node_id":"0.0-2.0-0.33"},{"rt":1316,"stimulus":"images/Dog/With_Backgrounds/difficulty8_image6.png","response":4,"category":"Dog","background_difficulty":"8","image_path":"images/Dog/With_Backgrounds/difficulty8_image6.png","trial_type":"image-button-response","trial_index":36,"time_elapsed":61029,"internal_node_id":"0.0-2.0-0.34"},{"rt":1971,"stimulus":"images/Tree/With_Backgrounds/difficulty6_image1.png","response":6,"category":"Tree","background_difficulty":"6","image_path":"images/Tree/With_Backgrounds/difficulty6_image1.png","trial_type":"image-button-response","trial_index":37,"time_elapsed":63007,"internal_node_id":"0.0-2.0-0.35"},{"rt":1470,"stimulus":"images/Other/With_Backgrounds/difficulty6_image1.png","response":7,"category":"Other","background_difficulty":"6","image_path":"images/Other/With_Backgrounds/difficulty6_image1.png","trial_type":"image-button-response","trial_index":38,"time_elapsed":64484,"internal_node_id":"0.0-2.0-0.36"},{"rt":1226,"stimulus":"images/Broccoli/With_Backgrounds/difficulty1_image0.png","response":1,"category":"Broccoli","background_difficulty":"1","image_path":"images/Broccoli/With_Backgrounds/difficulty1_image0.png","trial_type":"image-button-response","trial_index":39,"time_elapsed":65716,"internal_node_id":"0.0-2.0-0.37"},{"rt":1156,"stimulus":"images/Human/With_Backgrounds/difficulty5_image3.png","response":5,"category":"Human","background_difficulty":"5","image_path":"images/Human/With_Backgrounds/difficulty5_image3.png","trial_type":"image-button-response","trial_index":40,"time_elapsed":66879,"internal_node_id":"0.0-2.0-0.38"},{"rt":1122,"stimulus":"images/Tree/With_Backgrounds/difficulty0_image7.png","response":6,"category":"Tree","background_difficulty":"0","image_path":"images/Tree/With_Backgrounds/difficulty0_image7.png","trial_type":"image-button-response","trial_index":41,"time_elapsed":68008,"internal_node_id":"0.0-2.0-0.39"},{"rt":1951,"stimulus":"images/Car/With_Backgrounds/difficulty3_image7.png","response":2,"category":"Car","background_difficulty":"3","image_path":"images/Car/With_Backgrounds/difficulty3_image7.png","trial_type":"image-button-response","trial_index":42,"time_elapsed":69964,"internal_node_id":"0.0-2.0-0.40"},{"rt":1358,"stimulus":"images/Other/With_Backgrounds/difficulty7_image2.png","response":7,"category":"Other","background_difficulty":"7","image_path":"images/Other/With_Backgrounds/difficulty7_image2.png","trial_type":"image-button-response","trial_index":43,"time_elapsed":71329,"internal_node_id":"0.0-2.0-0.41"},{"rt":1317,"stimulus":"images/Dog/With_Backgrounds/difficulty2_image7.png","response":4,"category":"Dog","background_difficulty":"2","image_path":"images/Dog/With_Backgrounds/difficulty2_image7.png","trial_type":"image-button-response","trial_index":44,"time_elapsed":72653,"internal_node_id":"0.0-2.0-0.42"},{"rt":1077,"stimulus":"images/Human/With_Backgrounds/difficulty2_image1.png","response":5,"category":"Human","background_difficulty":"2","image_path":"images/Human/With_Backgrounds/difficulty2_image1.png","trial_type":"image-button-response","trial_index":45,"time_elapsed":73739,"internal_node_id":"0.0-2.0-0.43"},{"rt":1154,"stimulus":"images/Boat/With_Backgrounds/difficulty5_image0.png","response":0,"category":"Boat","background_difficulty":"5","image_path":"images/Boat/With_Backgrounds/difficulty5_image0.png","trial_type":"image-button-response","trial_index":46,"time_elapsed":74902,"internal_node_id":"0.0-2.0-0.44"},{"rt":1121,"stimulus":"images/Human/With_Backgrounds/difficulty1_image8.png","response":5,"category":"Human","background_difficulty":"1","image_path":"images/Human/With_Backgrounds/difficulty1_image8.png","trial_type":"image-button-response","trial_index":47,"time_elapsed":76030,"internal_node_id":"0.0-2.0-0.45"},{"rt":2151,"stimulus":"images/Boat/With_Backgrounds/difficulty7_image1.png","response":0,"category":"Boat","background_difficulty":"7","image_path":"images/Boat/With_Backgrounds/difficulty7_image1.png","trial_type":"image-button-response","trial_index":48,"time_elapsed":78189,"internal_node_id":"0.0-2.0-0.46"},{"rt":1419,"stimulus":"images/Car/With_Backgrounds/difficulty5_image3.png","response":2,"category":"Car","background_difficulty":"5","image_path":"images/Car/With_Backgrounds/difficulty5_image3.png","trial_type":"image-button-response","trial_index":49,"time_elapsed":79616,"internal_node_id":"0.0-2.0-0.47"},{"rt":1209,"stimulus":"images/Broccoli/With_Backgrounds/difficulty3_image5.png","response":1,"category":"Broccoli","background_difficulty":"3","image_path":"images/Broccoli/With_Backgrounds/difficulty3_image5.png","trial_type":"image-button-response","trial_index":50,"time_elapsed":80834,"internal_node_id":"0.0-2.0-0.48"},{"rt":2207,"stimulus":"images/Car/With_Backgrounds/difficulty8_image8.png","response":2,"category":"Car","background_difficulty":"8","image_path":"images/Car/With_Backgrounds/difficulty8_image8.png","trial_type":"image-button-response","trial_index":51,"time_elapsed":83050,"internal_node_id":"0.0-2.0-0.49"},{"rt":2143,"stimulus":"images/Human/With_Backgrounds/difficulty6_image6.png","response":5,"category":"Human","background_difficulty":"6","image_path":"images/Human/With_Backgrounds/difficulty6_image6.png","trial_type":"image-button-response","trial_index":52,"time_elapsed":85202,"internal_node_id":"0.0-2.0-0.50"},{"rt":638,"stimulus":"images/Human/With_Backgrounds/difficulty0_image7.png","response":5,"category":"Human","background_difficulty":"0","image_path":"images/Human/With_Backgrounds/difficulty0_image7.png","trial_type":"image-button-response","trial_index":53,"time_elapsed":85849,"internal_node_id":"0.0-2.0-0.51"},{"rt":1079,"stimulus":"images/Cat/With_Backgrounds/difficulty7_image5.png","response":3,"category":"Cat","background_difficulty":"7","image_path":"images/Cat/With_Backgrounds/difficulty7_image5.png","trial_type":"image-button-response","trial_index":54,"time_elapsed":86935,"internal_node_id":"0.0-2.0-0.52"},{"rt":1184,"stimulus":"images/Tree/With_Backgrounds/difficulty4_image8.png","response":6,"category":"Tree","background_difficulty":"4","image_path":"images/Tree/With_Backgrounds/difficulty4_image8.png","trial_type":"image-button-response","trial_index":55,"time_elapsed":88126,"internal_node_id":"0.0-2.0-0.53"},{"rt":1726,"stimulus":"images/Dog/With_Backgrounds/difficulty6_image9.png","response":4,"category":"Dog","background_difficulty":"6","image_path":"images/Dog/With_Backgrounds/difficulty6_image9.png","trial_type":"image-button-response","trial_index":56,"time_elapsed":89860,"internal_node_id":"0.0-2.0-0.54"},{"rt":1895,"stimulus":"images/Car/With_Backgrounds/difficulty0_image1.png","response":2,"category":"Car","background_difficulty":"0","image_path":"images/Car/With_Backgrounds/difficulty0_image1.png","trial_type":"image-button-response","trial_index":57,"time_elapsed":91761,"internal_node_id":"0.0-2.0-0.55"},{"rt":1324,"stimulus":"images/Broccoli/With_Backgrounds/difficulty4_image3.png","response":1,"category":"Broccoli","background_difficulty":"4","image_path":"images/Broccoli/With_Backgrounds/difficulty4_image3.png","trial_type":"image-button-response","trial_index":58,"time_elapsed":93092,"internal_node_id":"0.0-2.0-0.56"},{"rt":1838,"stimulus":"images/Boat/With_Backgrounds/difficulty6_image3.png","response":0,"category":"Boat","background_difficulty":"6","image_path":"images/Boat/With_Backgrounds/difficulty6_image3.png","trial_type":"image-button-response","trial_index":59,"time_elapsed":94938,"internal_node_id":"0.0-2.0-0.57"},{"rt":1581,"stimulus":"images/Car/With_Backgrounds/difficulty4_image4.png","response":2,"category":"Car","background_difficulty":"4","image_path":"images/Car/With_Backgrounds/difficulty4_image4.png","trial_type":"image-button-response","trial_index":60,"time_elapsed":96525,"internal_node_id":"0.0-2.0-0.58"},{"rt":1057,"stimulus":"images/Dog/With_Backgrounds/difficulty5_image8.png","response":4,"category":"Dog","background_difficulty":"5","image_path":"images/Dog/With_Backgrounds/difficulty5_image8.png","trial_type":"image-button-response","trial_index":61,"time_elapsed":97589,"internal_node_id":"0.0-2.0-0.59"},{"rt":1154,"stimulus":"images/Car/With_Backgrounds/difficulty1_image2.png","response":2,"category":"Car","background_difficulty":"1","image_path":"images/Car/With_Backgrounds/difficulty1_image2.png","trial_type":"image-button-response","trial_index":62,"time_elapsed":98746,"internal_node_id":"0.0-2.0-0.60"},{"rt":1337,"stimulus":"images/Cat/With_Backgrounds/difficulty1_image3.png","response":3,"category":"Cat","background_difficulty":"1","image_path":"images/Cat/With_Backgrounds/difficulty1_image3.png","trial_type":"image-button-response","trial_index":63,"time_elapsed":100090,"internal_node_id":"0.0-2.0-0.61"},{"rt":1249,"stimulus":"images/Broccoli/With_Backgrounds/difficulty5_image8.png","response":1,"category":"Broccoli","background_difficulty":"5","image_path":"images/Broccoli/With_Backgrounds/difficulty5_image8.png","trial_type":"image-button-response","trial_index":64,"time_elapsed":101343,"internal_node_id":"0.0-2.0-0.62"},{"rt":1407,"stimulus":"images/Car/With_Backgrounds/difficulty2_image5.png","response":2,"category":"Car","background_difficulty":"2","image_path":"images/Car/With_Backgrounds/difficulty2_image5.png","trial_type":"image-button-response","trial_index":65,"time_elapsed":102757,"internal_node_id":"0.0-2.0-0.63"},{"rt":1225,"stimulus":"images/Tree/With_Backgrounds/difficulty5_image0.png","response":6,"category":"Tree","background_difficulty":"5","image_path":"images/Tree/With_Backgrounds/difficulty5_image0.png","trial_type":"image-button-response","trial_index":66,"time_elapsed":103989,"internal_node_id":"0.0-2.0-0.64"},{"rt":1607,"stimulus":"images/Other/With_Backgrounds/difficulty8_image8.png","response":7,"category":"Other","background_difficulty":"8","image_path":"images/Other/With_Backgrounds/difficulty8_image8.png","trial_type":"image-button-response","trial_index":67,"time_elapsed":105605,"internal_node_id":"0.0-2.0-0.65"},{"rt":1371,"stimulus":"images/Broccoli/With_Backgrounds/difficulty0_image4.png","response":1,"category":"Broccoli","background_difficulty":"0","image_path":"images/Broccoli/With_Backgrounds/difficulty0_image4.png","trial_type":"image-button-response","trial_index":68,"time_elapsed":106983,"internal_node_id":"0.0-2.0-0.66"},{"rt":1359,"stimulus":"images/Boat/With_Backgrounds/difficulty1_image8.png","response":0,"category":"Boat","background_difficulty":"1","image_path":"images/Boat/With_Backgrounds/difficulty1_image8.png","trial_type":"image-button-response","trial_index":69,"time_elapsed":108347,"internal_node_id":"0.0-2.0-0.67"},{"rt":1237,"stimulus":"images/Broccoli/With_Backgrounds/difficulty6_image7.png","response":1,"category":"Broccoli","background_difficulty":"6","image_path":"images/Broccoli/With_Backgrounds/difficulty6_image7.png","trial_type":"image-button-response","trial_index":70,"time_elapsed":109588,"internal_node_id":"0.0-2.0-0.68"},{"rt":1038,"stimulus":"images/Cat/With_Backgrounds/difficulty6_image7.png","response":3,"category":"Cat","background_difficulty":"6","image_path":"images/Cat/With_Backgrounds/difficulty6_image7.png","trial_type":"image-button-response","trial_index":71,"time_elapsed":110633,"internal_node_id":"0.0-2.0-0.69"},{"rt":886,"stimulus":"images/Cat/With_Backgrounds/difficulty2_image1.png","response":3,"category":"Cat","background_difficulty":"2","image_path":"images/Cat/With_Backgrounds/difficulty2_image1.png","trial_type":"image-button-response","trial_index":72,"time_elapsed":111524,"internal_node_id":"0.0-2.0-0.70"},{"rt":1106,"stimulus":"images/Boat/With_Backgrounds/difficulty3_image7.png","response":0,"category":"Boat","background_difficulty":"3","image_path":"images/Boat/With_Backgrounds/difficulty3_image7.png","trial_type":"image-button-response","trial_index":73,"time_elapsed":112637,"internal_node_id":"0.0-2.0-0.71"},{"rt":1836,"stimulus":["<h2>Press the button below to end experiment.</h2><p>Thank you for participating!</p>"],"response":0,"trial_type":"html-button-response","trial_index":74,"time_elapsed":114476,"internal_node_id":"0.0-3.0"}]