[{"success":true,"timeout":false,"failed_images":[],"failed_audio":[],"failed_video":[],"trial_type":"preload","trial_index":0,"time_elapsed":3901,"internal_node_id":"0.0-0.0"},{"rt":18716,"stimulus":["<h2>Noisy background image classification</h2><p>In this experiment you will briefly see images on top of colored squares of various sizes.</p><p>Your task is to report what each image is, selecting \"None of the Above\" if none of the given options are correct.</p> <p>The possible options are <strong>Boat</strong>, <strong>Broccoli</strong>, <strong>Car</strong>, <strong>Cat</strong>, <strong>Dog</strong>, <strong>Human</strong>, <strong>Tree</strong>, and <strong>None of the Above</strong>"],"response":0,"trial_type":"html-button-response","trial_index":1,"time_elapsed":22631,"internal_node_id":"0.0-1.0"},{"rt":5758,"stimulus":"images/Other/With_Backgrounds/difficulty7_image7.png","response":7,"category":"Other","background_difficulty":"7","image_path":"images/Other/With_Backgrounds/difficulty7_image7.png","trial_type":"image-button-response","trial_index":2,"time_elapsed":28445,"internal_node_id":"0.0-2.0-0.0"},{"rt":1684,"stimulus":"images/Tree/With_Backgrounds/difficulty8_image1.png","response":6,"category":"Tree","background_difficulty":"8","image_path":"images/Tree/With_Backgrounds/difficulty8_image1.png","trial_type":"image-button-response","trial_index":3,"time_elapsed":30142,"internal_node_id":"0.0-2.0-0.1"},{"rt":8781,"stimulus":"images/Other/With_Backgrounds/difficulty1_image1.png","response":7,"category":"Other","background_difficulty":"1","image_path":"images/Other/With_Backgrounds/difficulty1_image1.png","trial_type":"image-button-response","trial_index":4,"time_elapsed":38934,"internal_node_id":"0.0-2.0-0.2"},{"rt":1861,"stimulus":"images/Cat/With_Backgrounds/difficulty3_image7.png","response":3,"category":"Cat","background_difficulty":"3","image_path":"images/Cat/With_Backgrounds/difficulty3_image7.png","trial_type":"image-button-response","trial_index":5,"time_elapsed":40810,"internal_node_id":"0.0-2.0-0.3"},{"rt":1468,"stimulus":"images/Cat/With_Backgrounds/difficulty5_image4.png","response":3,"category":"Cat","background_difficulty":"5","image_path":"images/Cat/With_Backgrounds/difficulty5_image4.png","trial_type":"image-button-response","trial_index":6,"time_elapsed":42296,"internal_node_id":"0.0-2.0-0.4"},{"rt":1570,"stimulus":"images/Tree/With_Backgrounds/difficulty1_image3.png","response":6,"category":"Tree","background_difficulty":"1","image_path":"images/Tree/With_Backgrounds/difficulty1_image3.png","trial_type":"image-button-response","trial_index":7,"time_elapsed":43880,"internal_node_id":"0.0-2.0-0.5"},{"rt":1512,"stimulus":"images/Other/With_Backgrounds/difficulty0_image6.png","response":7,"category":"Other","background_difficulty":"0","image_path":"images/Other/With_Backgrounds/difficulty0_image6.png","trial_type":"image-button-response","trial_index":8,"time_elapsed":45406,"internal_node_id":"0.0-2.0-0.6"},{"rt":1382,"stimulus":"images/Dog/With_Backgrounds/difficulty2_image1.png","response":4,"category":"Dog","background_difficulty":"2","image_path":"images/Dog/With_Backgrounds/difficulty2_image1.png","trial_type":"image-button-response","trial_index":9,"time_elapsed":46801,"internal_node_id":"0.0-2.0-0.7"},{"rt":1517,"stimulus":"images/Cat/With_Backgrounds/difficulty1_image3.png","response":3,"category":"Cat","background_difficulty":"1","image_path":"images/Cat/With_Backgrounds/difficulty1_image3.png","trial_type":"image-button-response","trial_index":10,"time_elapsed":48334,"internal_node_id":"0.0-2.0-0.8"},{"rt":1493,"stimulus":"images/Tree/With_Backgrounds/difficulty6_image9.png","response":6,"category":"Tree","background_difficulty":"6","image_path":"images/Tree/With_Backgrounds/difficulty6_image9.png","trial_type":"image-button-response","trial_index":11,"time_elapsed":49845,"internal_node_id":"0.0-2.0-0.9"},{"rt":1547,"stimulus":"images/Car/With_Backgrounds/difficulty1_image0.png","response":2,"category":"Car","background_difficulty":"1","image_path":"images/Car/With_Backgrounds/difficulty1_image0.png","trial_type":"image-button-response","trial_index":12,"time_elapsed":51410,"internal_node_id":"0.0-2.0-0.10"},{"rt":1378,"stimulus":"images/Human/With_Backgrounds/difficulty1_image8.png","response":5,"category":"Human","background_difficulty":"1","image_path":"images/Human/With_Backgrounds/difficulty1_image8.png","trial_type":"image-button-response","trial_index":13,"time_elapsed":52805,"internal_node_id":"0.0-2.0-0.11"},{"rt":1469,"stimulus":"images/Car/With_Backgrounds/difficulty6_image6.png","response":2,"category":"Car","background_difficulty":"6","image_path":"images/Car/With_Backgrounds/difficulty6_image6.png","trial_type":"image-button-response","trial_index":14,"time_elapsed":54289,"internal_node_id":"0.0-2.0-0.12"},{"rt":1796,"stimulus":"images/Other/With_Backgrounds/difficulty4_image0.png","response":7,"category":"Other","background_difficulty":"4","image_path":"images/Other/With_Backgrounds/difficulty4_image0.png","trial_type":"image-button-response","trial_index":15,"time_elapsed":56103,"internal_node_id":"0.0-2.0-0.13"},{"rt":1884,"stimulus":"images/Other/With_Backgrounds/difficulty6_image3.png","response":7,"category":"Other","background_difficulty":"6","image_path":"images/Other/With_Backgrounds/difficulty6_image3.png","trial_type":"image-button-response","trial_index":16,"time_elapsed":58001,"internal_node_id":"0.0-2.0-0.14"},{"rt":1522,"stimulus":"images/Car/With_Backgrounds/difficulty5_image9.png","response":2,"category":"Car","background_difficulty":"5","image_path":"images/Car/With_Backgrounds/difficulty5_image9.png","trial_type":"image-button-response","trial_index":17,"time_elapsed":59535,"internal_node_id":"0.0-2.0-0.15"},{"rt":1374,"stimulus":"images/Boat/With_Backgrounds/difficulty2_image2.png","response":0,"category":"Boat","background_difficulty":"2","image_path":"images/Boat/With_Backgrounds/difficulty2_image2.png","trial_type":"image-button-response","trial_index":18,"time_elapsed":60921,"internal_node_id":"0.0-2.0-0.16"},{"rt":1386,"stimulus":"images/Dog/With_Backgrounds/difficulty4_image9.png","response":4,"category":"Dog","background_difficulty":"4","image_path":"images/Dog/With_Backgrounds/difficulty4_image9.png","trial_type":"image-button-response","trial_index":19,"time_elapsed":62319,"internal_node_id":"0.0-2.0-0.17"},{"rt":1687,"stimulus":"images/Boat/With_Backgrounds/difficulty7_image3.png","response":0,"category":"Boat","background_difficulty":"7","image_path":"images/Boat/With_Backgrounds/difficulty7_image3.png","trial_type":"image-button-response","trial_index":20,"time_elapsed":64021,"internal_node_id":"0.0-2.0-0.18"},{"rt":1516,"stimulus":"images/Broccoli/With_Backgrounds/difficulty6_image4.png","response":1,"category":"Broccoli","background_difficulty":"6","image_path":"images/Broccoli/With_Backgrounds/difficulty6_image4.png","trial_type":"image-button-response","trial_index":21,"time_elapsed":65553,"internal_node_id":"0.0-2.0-0.19"},{"rt":3016,"stimulus":"images/Car/With_Backgrounds/difficulty8_image8.png","response":2,"category":"Car","background_difficulty":"8","image_path":"images/Car/With_Backgrounds/difficulty8_image8.png","trial_type":"image-button-response","trial_index":22,"time_elapsed":68587,"internal_node_id":"0.0-2.0-0.20"},{"rt":1276,"stimulus":"images/Other/With_Backgrounds/difficulty3_image2.png","response":7,"category":"Other","background_difficulty":"3","image_path":"images/Other/With_Backgrounds/difficulty3_image2.png","trial_type":"image-button-response","trial_index":23,"time_elapsed":69880,"internal_node_id":"0.0-2.0-0.21"},{"rt":1520,"stimulus":"images/Dog/With_Backgrounds/difficulty6_image2.png","response":4,"category":"Dog","background_difficulty":"6","image_path":"images/Dog/With_Backgrounds/difficulty6_image2.png","trial_type":"image-button-response","trial_index":24,"time_elapsed":71413,"internal_node_id":"0.0-2.0-0.22"},{"rt":1584,"stimulus":"images/Car/With_Backgrounds/difficulty7_image7.png","response":2,"category":"Car","background_difficulty":"7","image_path":"images/Car/With_Backgrounds/difficulty7_image7.png","trial_type":"image-button-response","trial_index":25,"time_elapsed":73015,"internal_node_id":"0.0-2.0-0.23"},{"rt":1320,"stimulus":"images/Boat/With_Backgrounds/difficulty5_image8.png","response":0,"category":"Boat","background_difficulty":"5","image_path":"images/Boat/With_Backgrounds/difficulty5_image8.png","trial_type":"image-button-response","trial_index":26,"time_elapsed":74353,"internal_node_id":"0.0-2.0-0.24"},{"rt":1742,"stimulus":"images/Car/With_Backgrounds/difficulty3_image5.png","response":2,"category":"Car","background_difficulty":"3","image_path":"images/Car/With_Backgrounds/difficulty3_image5.png","trial_type":"image-button-response","trial_index":27,"time_elapsed":76108,"internal_node_id":"0.0-2.0-0.25"},{"rt":1422,"stimulus":"images/Human/With_Backgrounds/difficulty0_image9.png","response":5,"category":"Human","background_difficulty":"0","image_path":"images/Human/With_Backgrounds/difficulty0_image9.png","trial_type":"image-button-response","trial_index":28,"time_elapsed":77550,"internal_node_id":"0.0-2.0-0.26"},{"rt":3406,"stimulus":"images/Broccoli/With_Backgrounds/difficulty5_image3.png","response":7,"category":"Broccoli","background_difficulty":"5","image_path":"images/Broccoli/With_Backgrounds/difficulty5_image3.png","trial_type":"image-button-response","trial_index":29,"time_elapsed":80974,"internal_node_id":"0.0-2.0-0.27"},{"rt":1694,"stimulus":"images/Cat/With_Backgrounds/difficulty8_image9.png","response":3,"category":"Cat","background_difficulty":"8","image_path":"images/Cat/With_Backgrounds/difficulty8_image9.png","trial_type":"image-button-response","trial_index":30,"time_elapsed":82686,"internal_node_id":"0.0-2.0-0.28"},{"rt":1243,"stimulus":"images/Dog/With_Backgrounds/difficulty0_image4.png","response":4,"category":"Dog","background_difficulty":"0","image_path":"images/Dog/With_Backgrounds/difficulty0_image4.png","trial_type":"image-button-response","trial_index":31,"time_elapsed":83951,"internal_node_id":"0.0-2.0-0.29"},{"rt":1221,"stimulus":"images/Cat/With_Backgrounds/difficulty4_image5.png","response":3,"category":"Cat","background_difficulty":"4","image_path":"images/Cat/With_Backgrounds/difficulty4_image5.png","trial_type":"image-button-response","trial_index":32,"time_elapsed":85182,"internal_node_id":"0.0-2.0-0.30"},{"rt":1300,"stimulus":"images/Human/With_Backgrounds/difficulty4_image6.png","response":5,"category":"Human","background_difficulty":"4","image_path":"images/Human/With_Backgrounds/difficulty4_image6.png","trial_type":"image-button-response","trial_index":33,"time_elapsed":86495,"internal_node_id":"0.0-2.0-0.31"},{"rt":2034,"stimulus":"images/Tree/With_Backgrounds/difficulty3_image2.png","response":6,"category":"Tree","background_difficulty":"3","image_path":"images/Tree/With_Backgrounds/difficulty3_image2.png","trial_type":"image-button-response","trial_index":34,"time_elapsed":88544,"internal_node_id":"0.0-2.0-0.32"},{"rt":1669,"stimulus":"images/Boat/With_Backgrounds/difficulty3_image7.png","response":0,"category":"Boat","background_difficulty":"3","image_path":"images/Boat/With_Backgrounds/difficulty3_image7.png","trial_type":"image-button-response","trial_index":35,"time_elapsed":90227,"internal_node_id":"0.0-2.0-0.33"},{"rt":1538,"stimulus":"images/Tree/With_Backgrounds/difficulty2_image4.png","response":6,"category":"Tree","background_difficulty":"2","image_path":"images/Tree/With_Backgrounds/difficulty2_image4.png","trial_type":"image-button-response","trial_index":36,"time_elapsed":91788,"internal_node_id":"0.0-2.0-0.34"},{"rt":1652,"stimulus":"images/Cat/With_Backgrounds/difficulty7_image6.png","response":3,"category":"Cat","background_difficulty":"7","image_path":"images/Cat/With_Backgrounds/difficulty7_image6.png","trial_type":"image-button-response","trial_index":37,"time_elapsed":93460,"internal_node_id":"0.0-2.0-0.35"},{"rt":1132,"stimulus":"images/Dog/With_Backgrounds/difficulty5_image5.png","response":4,"category":"Dog","background_difficulty":"5","image_path":"images/Dog/With_Backgrounds/difficulty5_image5.png","trial_type":"image-button-response","trial_index":38,"time_elapsed":94612,"internal_node_id":"0.0-2.0-0.36"},{"rt":1424,"stimulus":"images/Tree/With_Backgrounds/difficulty0_image8.png","response":6,"category":"Tree","background_difficulty":"0","image_path":"images/Tree/With_Backgrounds/difficulty0_image8.png","trial_type":"image-button-response","trial_index":39,"time_elapsed":96056,"internal_node_id":"0.0-2.0-0.37"},{"rt":1340,"stimulus":"images/Boat/With_Backgrounds/difficulty8_image4.png","response":0,"category":"Boat","background_difficulty":"8","image_path":"images/Boat/With_Backgrounds/difficulty8_image4.png","trial_type":"image-button-response","trial_index":40,"time_elapsed":97411,"internal_node_id":"0.0-2.0-0.38"},{"rt":1401,"stimulus":"images/Tree/With_Backgrounds/difficulty5_image5.png","response":6,"category":"Tree","background_difficulty":"5","image_path":"images/Tree/With_Backgrounds/difficulty5_image5.png","trial_type":"image-button-response","trial_index":41,"time_elapsed":98831,"internal_node_id":"0.0-2.0-0.39"},{"rt":1205,"stimulus":"images/Human/With_Backgrounds/difficulty6_image0.png","response":5,"category":"Human","background_difficulty":"6","image_path":"images/Human/With_Backgrounds/difficulty6_image0.png","trial_type":"image-button-response","trial_index":42,"time_elapsed":100054,"internal_node_id":"0.0-2.0-0.40"},{"rt":1433,"stimulus":"images/Broccoli/With_Backgrounds/difficulty2_image1.png","response":1,"category":"Broccoli","background_difficulty":"2","image_path":"images/Broccoli/With_Backgrounds/difficulty2_image1.png","trial_type":"image-button-response","trial_index":43,"time_elapsed":101505,"internal_node_id":"0.0-2.0-0.41"},{"rt":1545,"stimulus":"images/Car/With_Backgrounds/difficulty0_image3.png","response":2,"category":"Car","background_difficulty":"0","image_path":"images/Car/With_Backgrounds/difficulty0_image3.png","trial_type":"image-button-response","trial_index":44,"time_elapsed":103069,"internal_node_id":"0.0-2.0-0.42"},{"rt":1367,"stimulus":"images/Car/With_Backgrounds/difficulty4_image2.png","response":2,"category":"Car","background_difficulty":"4","image_path":"images/Car/With_Backgrounds/difficulty4_image2.png","trial_type":"image-button-response","trial_index":45,"time_elapsed":104452,"internal_node_id":"0.0-2.0-0.43"},{"rt":1419,"stimulus":"images/Human/With_Backgrounds/difficulty5_image7.png","response":5,"category":"Human","background_difficulty":"5","image_path":"images/Human/With_Backgrounds/difficulty5_image7.png","trial_type":"image-button-response","trial_index":46,"time_elapsed":105888,"internal_node_id":"0.0-2.0-0.44"},{"rt":1969,"stimulus":"images/Cat/With_Backgrounds/difficulty0_image2.png","response":3,"category":"Cat","background_difficulty":"0","image_path":"images/Cat/With_Backgrounds/difficulty0_image2.png","trial_type":"image-button-response","trial_index":47,"time_elapsed":107873,"internal_node_id":"0.0-2.0-0.45"},{"rt":1179,"stimulus":"images/Boat/With_Backgrounds/difficulty1_image6.png","response":0,"category":"Boat","background_difficulty":"1","image_path":"images/Boat/With_Backgrounds/difficulty1_image6.png","trial_type":"image-button-response","trial_index":48,"time_elapsed":109068,"internal_node_id":"0.0-2.0-0.46"},{"rt":1153,"stimulus":"images/Boat/With_Backgrounds/difficulty6_image0.png","response":0,"category":"Boat","background_difficulty":"6","image_path":"images/Boat/With_Backgrounds/difficulty6_image0.png","trial_type":"image-button-response","trial_index":49,"time_elapsed":110238,"internal_node_id":"0.0-2.0-0.47"},{"rt":1657,"stimulus":"images/Dog/With_Backgrounds/difficulty1_image3.png","response":4,"category":"Dog","background_difficulty":"1","image_path":"images/Dog/With_Backgrounds/difficulty1_image3.png","trial_type":"image-button-response","trial_index":50,"time_elapsed":111914,"internal_node_id":"0.0-2.0-0.48"},{"rt":1460,"stimulus":"images/Broccoli/With_Backgrounds/difficulty7_image5.png","response":1,"category":"Broccoli","background_difficulty":"7","image_path":"images/Broccoli/With_Backgrounds/difficulty7_image5.png","trial_type":"image-button-response","trial_index":51,"time_elapsed":113391,"internal_node_id":"0.0-2.0-0.49"},{"rt":1055,"stimulus":"images/Broccoli/With_Backgrounds/difficulty8_image6.png","response":1,"category":"Broccoli","background_difficulty":"8","image_path":"images/Broccoli/With_Backgrounds/difficulty8_image6.png","trial_type":"image-button-response","trial_index":52,"time_elapsed":114461,"internal_node_id":"0.0-2.0-0.50"},{"rt":1064,"stimulus":"images/Broccoli/With_Backgrounds/difficulty3_image7.png","response":1,"category":"Broccoli","background_difficulty":"3","image_path":"images/Broccoli/With_Backgrounds/difficulty3_image7.png","trial_type":"image-button-response","trial_index":53,"time_elapsed":115541,"internal_node_id":"0.0-2.0-0.51"},{"rt":1481,"stimulus":"images/Cat/With_Backgrounds/difficulty6_image1.png","response":3,"category":"Cat","background_difficulty":"6","image_path":"images/Cat/With_Backgrounds/difficulty6_image1.png","trial_type":"image-button-response","trial_index":54,"time_elapsed":117039,"internal_node_id":"0.0-2.0-0.52"},{"rt":1429,"stimulus":"images/Other/With_Backgrounds/difficulty2_image8.png","response":7,"category":"Other","background_difficulty":"2","image_path":"images/Other/With_Backgrounds/difficulty2_image8.png","trial_type":"image-button-response","trial_index":55,"time_elapsed":118481,"internal_node_id":"0.0-2.0-0.53"},{"rt":1217,"stimulus":"images/Cat/With_Backgrounds/difficulty2_image8.png","response":3,"category":"Cat","background_difficulty":"2","image_path":"images/Cat/With_Backgrounds/difficulty2_image8.png","trial_type":"image-button-response","trial_index":56,"time_elapsed":119710,"internal_node_id":"0.0-2.0-0.54"},{"rt":1338,"stimulus":"images/Broccoli/With_Backgrounds/difficulty4_image0.png","response":1,"category":"Broccoli","background_difficulty":"4","image_path":"images/Broccoli/With_Backgrounds/difficulty4_image0.png","trial_type":"image-button-response","trial_index":57,"time_elapsed":121064,"internal_node_id":"0.0-2.0-0.55"},{"rt":1146,"stimulus":"images/Human/With_Backgrounds/difficulty8_image2.png","response":5,"category":"Human","background_difficulty":"8","image_path":"images/Human/With_Backgrounds/difficulty8_image2.png","trial_type":"image-button-response","trial_index":58,"time_elapsed":122226,"internal_node_id":"0.0-2.0-0.56"},{"rt":1080,"stimulus":"images/Human/With_Backgrounds/difficulty3_image3.png","response":5,"category":"Human","background_difficulty":"3","image_path":"images/Human/With_Backgrounds/difficulty3_image3.png","trial_type":"image-button-response","trial_index":59,"time_elapsed":123324,"internal_node_id":"0.0-2.0-0.57"},{"rt":1313,"stimulus":"images/Boat/With_Backgrounds/difficulty4_image9.png","response":0,"category":"Boat","background_difficulty":"4","image_path":"images/Boat/With_Backgrounds/difficulty4_image9.png","trial_type":"image-button-response","trial_index":60,"time_elapsed":124657,"internal_node_id":"0.0-2.0-0.58"},{"rt":1389,"stimulus":"images/Tree/With_Backgrounds/difficulty4_image7.png","response":6,"category":"Tree","background_difficulty":"4","image_path":"images/Tree/With_Backgrounds/difficulty4_image7.png","trial_type":"image-button-response","trial_index":61,"time_elapsed":126064,"internal_node_id":"0.0-2.0-0.59"},{"rt":1717,"stimulus":"images/Other/With_Backgrounds/difficulty5_image4.png","response":7,"category":"Other","background_difficulty":"5","image_path":"images/Other/With_Backgrounds/difficulty5_image4.png","trial_type":"image-button-response","trial_index":62,"time_elapsed":127800,"internal_node_id":"0.0-2.0-0.60"},{"rt":1262,"stimulus":"images/Dog/With_Backgrounds/difficulty7_image6.png","response":4,"category":"Dog","background_difficulty":"7","image_path":"images/Dog/With_Backgrounds/difficulty7_image6.png","trial_type":"image-button-response","trial_index":63,"time_elapsed":129075,"internal_node_id":"0.0-2.0-0.61"},{"rt":1242,"stimulus":"images/Broccoli/With_Backgrounds/difficulty0_image2.png","response":1,"category":"Broccoli","background_difficulty":"0","image_path":"images/Broccoli/With_Backgrounds/difficulty0_image2.png","trial_type":"image-button-response","trial_index":64,"time_elapsed":130330,"internal_node_id":"0.0-2.0-0.62"},{"rt":1145,"stimulus":"images/Human/With_Backgrounds/difficulty2_image4.png","response":5,"category":"Human","background_difficulty":"2","image_path":"images/Human/With_Backgrounds/difficulty2_image4.png","trial_type":"image-button-response","trial_index":65,"time_elapsed":131494,"internal_node_id":"0.0-2.0-0.63"},{"rt":1215,"stimulus":"images/Dog/With_Backgrounds/difficulty8_image8.png","response":4,"category":"Dog","background_difficulty":"8","image_path":"images/Dog/With_Backgrounds/difficulty8_image8.png","trial_type":"image-button-response","trial_index":66,"time_elapsed":132727,"internal_node_id":"0.0-2.0-0.64"},{"rt":1115,"stimulus":"images/Boat/With_Backgrounds/difficulty0_image1.png","response":0,"category":"Boat","background_difficulty":"0","image_path":"images/Boat/With_Backgrounds/difficulty0_image1.png","trial_type":"image-button-response","trial_index":67,"time_elapsed":133860,"internal_node_id":"0.0-2.0-0.65"},{"rt":1282,"stimulus":"images/Tree/With_Backgrounds/difficulty7_image6.png","response":6,"category":"Tree","background_difficulty":"7","image_path":"images/Tree/With_Backgrounds/difficulty7_image6.png","trial_type":"image-button-response","trial_index":68,"time_elapsed":135160,"internal_node_id":"0.0-2.0-0.66"},{"rt":1256,"stimulus":"images/Dog/With_Backgrounds/difficulty3_image0.png","response":4,"category":"Dog","background_difficulty":"3","image_path":"images/Dog/With_Backgrounds/difficulty3_image0.png","trial_type":"image-button-response","trial_index":69,"time_elapsed":136429,"internal_node_id":"0.0-2.0-0.67"},{"rt":1527,"stimulus":"images/Other/With_Backgrounds/difficulty8_image9.png","response":7,"category":"Other","background_difficulty":"8","image_path":"images/Other/With_Backgrounds/difficulty8_image9.png","trial_type":"image-button-response","trial_index":70,"time_elapsed":137974,"internal_node_id":"0.0-2.0-0.68"},{"rt":1279,"stimulus":"images/Human/With_Backgrounds/difficulty7_image5.png","response":5,"category":"Human","background_difficulty":"7","image_path":"images/Human/With_Backgrounds/difficulty7_image5.png","trial_type":"image-button-response","trial_index":71,"time_elapsed":139273,"internal_node_id":"0.0-2.0-0.69"},{"rt":1275,"stimulus":"images/Broccoli/With_Backgrounds/difficulty1_image8.png","response":1,"category":"Broccoli","background_difficulty":"1","image_path":"images/Broccoli/With_Backgrounds/difficulty1_image8.png","trial_type":"image-button-response","trial_index":72,"time_elapsed":140566,"internal_node_id":"0.0-2.0-0.70"},{"rt":1367,"stimulus":"images/Car/With_Backgrounds/difficulty2_image4.png","response":2,"category":"Car","background_difficulty":"2","image_path":"images/Car/With_Backgrounds/difficulty2_image4.png","trial_type":"image-button-response","trial_index":73,"time_elapsed":141953,"internal_node_id":"0.0-2.0-0.71"},{"rt":1544,"stimulus":["<h2>Press the button below to end experiment.</h2><p>Thank you for participating!</p>"],"response":0,"trial_type":"html-button-response","trial_index":74,"time_elapsed":143507,"internal_node_id":"0.0-3.0"}]