[{"success":true,"timeout":false,"failed_images":[],"failed_audio":[],"failed_video":[],"trial_type":"preload","trial_index":0,"time_elapsed":21052,"internal_node_id":"0.0-0.0"},{"rt":62927,"stimulus":["<h2>Noisy background image classification</h2><p>In this experiment you will briefly see images on top of colored squares of various sizes.</p><p>Your task is to report what each image is, selecting \"None of the Above\" if none of the given options are correct.</p> <p>The possible options are <strong>Boat</strong>, <strong>Broccoli</strong>, <strong>Car</strong>, <strong>Cat</strong>, <strong>Dog</strong>, <strong>Human</strong>, <strong>Tree</strong>, and <strong>None of the Above</strong>"],"response":0,"trial_type":"html-button-response","trial_index":1,"time_elapsed":83980,"internal_node_id":"0.0-1.0"},{"rt":3538,"stimulus":"images/Boat/With_Backgrounds/difficulty4_image8.png","response":0,"category":"Boat","background_difficulty":"4","image_path":"images/Boat/With_Backgrounds/difficulty4_image8.png","trial_type":"image-button-response","trial_index":2,"time_elapsed":87521,"internal_node_id":"0.0-2.0-0.0"},{"rt":3896,"stimulus":"images/Other/With_Backgrounds/difficulty2_image2.png","response":7,"category":"Other","background_difficulty":"2","image_path":"images/Other/With_Backgrounds/difficulty2_image2.png","trial_type":"image-button-response","trial_index":3,"time_elapsed":91418,"internal_node_id":"0.0-2.0-0.1"},{"rt":1532,"stimulus":"images/Human/With_Backgrounds/difficulty0_image4.png","response":5,"category":"Human","background_difficulty":"0","image_path":"images/Human/With_Backgrounds/difficulty0_image4.png","trial_type":"image-button-response","trial_index":4,"time_elapsed":92951,"internal_node_id":"0.0-2.0-0.2"},{"rt":2863,"stimulus":"images/Other/With_Backgrounds/difficulty8_image4.png","response":7,"category":"Other","background_difficulty":"8","image_path":"images/Other/With_Backgrounds/difficulty8_image4.png","trial_type":"image-button-response","trial_index":5,"time_elapsed":95815,"internal_node_id":"0.0-2.0-0.3"},{"rt":1228,"stimulus":"images/Dog/With_Backgrounds/difficulty7_image5.png","response":4,"category":"Dog","background_difficulty":"7","image_path":"images/Dog/With_Backgrounds/difficulty7_image5.png","trial_type":"image-button-response","trial_index":6,"time_elapsed":97044,"internal_node_id":"0.0-2.0-0.4"},{"rt":1355,"stimulus":"images/Cat/With_Backgrounds/difficulty1_image2.png","response":3,"category":"Cat","background_difficulty":"1","image_path":"images/Cat/With_Backgrounds/difficulty1_image2.png","trial_type":"image-button-response","trial_index":7,"time_elapsed":98400,"internal_node_id":"0.0-2.0-0.5"},{"rt":1522,"stimulus":"images/Car/With_Backgrounds/difficulty8_image4.png","response":2,"category":"Car","background_difficulty":"8","image_path":"images/Car/With_Backgrounds/difficulty8_image4.png","trial_type":"image-button-response","trial_index":8,"time_elapsed":99923,"internal_node_id":"0.0-2.0-0.6"},{"rt":1531,"stimulus":"images/Broccoli/With_Backgrounds/difficulty4_image0.png","response":1,"category":"Broccoli","background_difficulty":"4","image_path":"images/Broccoli/With_Backgrounds/difficulty4_image0.png","trial_type":"image-button-response","trial_index":9,"time_elapsed":101455,"internal_node_id":"0.0-2.0-0.7"},{"rt":2789,"stimulus":"images/Broccoli/With_Backgrounds/difficulty6_image7.png","response":1,"category":"Broccoli","background_difficulty":"6","image_path":"images/Broccoli/With_Backgrounds/difficulty6_image7.png","trial_type":"image-button-response","trial_index":10,"time_elapsed":104245,"internal_node_id":"0.0-2.0-0.8"},{"rt":1366,"stimulus":"images/Cat/With_Backgrounds/difficulty3_image8.png","response":3,"category":"Cat","background_difficulty":"3","image_path":"images/Cat/With_Backgrounds/difficulty3_image8.png","trial_type":"image-button-response","trial_index":11,"time_elapsed":105612,"internal_node_id":"0.0-2.0-0.9"},{"rt":1060,"stimulus":"images/Human/With_Backgrounds/difficulty3_image8.png","response":5,"category":"Human","background_difficulty":"3","image_path":"images/Human/With_Backgrounds/difficulty3_image8.png","trial_type":"image-button-response","trial_index":12,"time_elapsed":106673,"internal_node_id":"0.0-2.0-0.10"},{"rt":1152,"stimulus":"images/Car/With_Backgrounds/difficulty0_image5.png","response":2,"category":"Car","background_difficulty":"0","image_path":"images/Car/With_Backgrounds/difficulty0_image5.png","trial_type":"image-button-response","trial_index":13,"time_elapsed":107826,"internal_node_id":"0.0-2.0-0.11"},{"rt":1221,"stimulus":"images/Boat/With_Backgrounds/difficulty2_image7.png","response":0,"category":"Boat","background_difficulty":"2","image_path":"images/Boat/With_Backgrounds/difficulty2_image7.png","trial_type":"image-button-response","trial_index":14,"time_elapsed":109048,"internal_node_id":"0.0-2.0-0.12"},{"rt":1167,"stimulus":"images/Boat/With_Backgrounds/difficulty5_image9.png","response":0,"category":"Boat","background_difficulty":"5","image_path":"images/Boat/With_Backgrounds/difficulty5_image9.png","trial_type":"image-button-response","trial_index":15,"time_elapsed":110216,"internal_node_id":"0.0-2.0-0.13"},{"rt":1142,"stimulus":"images/Car/With_Backgrounds/difficulty2_image3.png","response":2,"category":"Car","background_difficulty":"2","image_path":"images/Car/With_Backgrounds/difficulty2_image3.png","trial_type":"image-button-response","trial_index":16,"time_elapsed":111359,"internal_node_id":"0.0-2.0-0.14"},{"rt":1573,"stimulus":"images/Tree/With_Backgrounds/difficulty2_image5.png","response":6,"category":"Tree","background_difficulty":"2","image_path":"images/Tree/With_Backgrounds/difficulty2_image5.png","trial_type":"image-button-response","trial_index":17,"time_elapsed":112933,"internal_node_id":"0.0-2.0-0.15"},{"rt":2076,"stimulus":"images/Other/With_Backgrounds/difficulty5_image9.png","response":7,"category":"Other","background_difficulty":"5","image_path":"images/Other/With_Backgrounds/difficulty5_image9.png","trial_type":"image-button-response","trial_index":18,"time_elapsed":115010,"internal_node_id":"0.0-2.0-0.16"},{"rt":1589,"stimulus":"images/Tree/With_Backgrounds/difficulty1_image6.png","response":6,"category":"Tree","background_difficulty":"1","image_path":"images/Tree/With_Backgrounds/difficulty1_image6.png","trial_type":"image-button-response","trial_index":19,"time_elapsed":116599,"internal_node_id":"0.0-2.0-0.17"},{"rt":1623,"stimulus":"images/Car/With_Backgrounds/difficulty5_image6.png","response":2,"category":"Car","background_difficulty":"5","image_path":"images/Car/With_Backgrounds/difficulty5_image6.png","trial_type":"image-button-response","trial_index":20,"time_elapsed":118223,"internal_node_id":"0.0-2.0-0.18"},{"rt":1197,"stimulus":"images/Broccoli/With_Backgrounds/difficulty5_image6.png","response":1,"category":"Broccoli","background_difficulty":"5","image_path":"images/Broccoli/With_Backgrounds/difficulty5_image6.png","trial_type":"image-button-response","trial_index":21,"time_elapsed":119421,"internal_node_id":"0.0-2.0-0.19"},{"rt":1726,"stimulus":"images/Dog/With_Backgrounds/difficulty1_image7.png","response":4,"category":"Dog","background_difficulty":"1","image_path":"images/Dog/With_Backgrounds/difficulty1_image7.png","trial_type":"image-button-response","trial_index":22,"time_elapsed":121148,"internal_node_id":"0.0-2.0-0.20"},{"rt":1477,"stimulus":"images/Other/With_Backgrounds/difficulty4_image6.png","response":7,"category":"Other","background_difficulty":"4","image_path":"images/Other/With_Backgrounds/difficulty4_image6.png","trial_type":"image-button-response","trial_index":23,"time_elapsed":122626,"internal_node_id":"0.0-2.0-0.21"},{"rt":2128,"stimulus":"images/Other/With_Backgrounds/difficulty3_image0.png","response":7,"category":"Other","background_difficulty":"3","image_path":"images/Other/With_Backgrounds/difficulty3_image0.png","trial_type":"image-button-response","trial_index":24,"time_elapsed":124755,"internal_node_id":"0.0-2.0-0.22"},{"rt":1074,"stimulus":"images/Broccoli/With_Backgrounds/difficulty0_image3.png","response":1,"category":"Broccoli","background_difficulty":"0","image_path":"images/Broccoli/With_Backgrounds/difficulty0_image3.png","trial_type":"image-button-response","trial_index":25,"time_elapsed":125830,"internal_node_id":"0.0-2.0-0.23"},{"rt":1224,"stimulus":"images/Dog/With_Backgrounds/difficulty6_image3.png","response":4,"category":"Dog","background_difficulty":"6","image_path":"images/Dog/With_Backgrounds/difficulty6_image3.png","trial_type":"image-button-response","trial_index":26,"time_elapsed":127055,"internal_node_id":"0.0-2.0-0.24"},{"rt":1064,"stimulus":"images/Other/With_Backgrounds/difficulty0_image5.png","response":7,"category":"Other","background_difficulty":"0","image_path":"images/Other/With_Backgrounds/difficulty0_image5.png","trial_type":"image-button-response","trial_index":27,"time_elapsed":128120,"internal_node_id":"0.0-2.0-0.25"},{"rt":941,"stimulus":"images/Human/With_Backgrounds/difficulty7_image5.png","response":5,"category":"Human","background_difficulty":"7","image_path":"images/Human/With_Backgrounds/difficulty7_image5.png","trial_type":"image-button-response","trial_index":28,"time_elapsed":129062,"internal_node_id":"0.0-2.0-0.26"},{"rt":966,"stimulus":"images/Boat/With_Backgrounds/difficulty3_image0.png","response":0,"category":"Boat","background_difficulty":"3","image_path":"images/Boat/With_Backgrounds/difficulty3_image0.png","trial_type":"image-button-response","trial_index":29,"time_elapsed":130029,"internal_node_id":"0.0-2.0-0.27"},{"rt":1385,"stimulus":"images/Dog/With_Backgrounds/difficulty0_image9.png","response":4,"category":"Dog","background_difficulty":"0","image_path":"images/Dog/With_Backgrounds/difficulty0_image9.png","trial_type":"image-button-response","trial_index":30,"time_elapsed":131415,"internal_node_id":"0.0-2.0-0.28"},{"rt":954,"stimulus":"images/Tree/With_Backgrounds/difficulty0_image7.png","response":6,"category":"Tree","background_difficulty":"0","image_path":"images/Tree/With_Backgrounds/difficulty0_image7.png","trial_type":"image-button-response","trial_index":31,"time_elapsed":132369,"internal_node_id":"0.0-2.0-0.29"},{"rt":1418,"stimulus":"images/Car/With_Backgrounds/difficulty6_image1.png","response":2,"category":"Car","background_difficulty":"6","image_path":"images/Car/With_Backgrounds/difficulty6_image1.png","trial_type":"image-button-response","trial_index":32,"time_elapsed":133788,"internal_node_id":"0.0-2.0-0.30"},{"rt":1422,"stimulus":"images/Dog/With_Backgrounds/difficulty2_image1.png","response":4,"category":"Dog","background_difficulty":"2","image_path":"images/Dog/With_Backgrounds/difficulty2_image1.png","trial_type":"image-button-response","trial_index":33,"time_elapsed":135211,"internal_node_id":"0.0-2.0-0.31"},{"rt":2662,"stimulus":"images/Cat/With_Backgrounds/difficulty0_image7.png","response":7,"category":"Cat","background_difficulty":"0","image_path":"images/Cat/With_Backgrounds/difficulty0_image7.png","trial_type":"image-button-response","trial_index":34,"time_elapsed":137875,"internal_node_id":"0.0-2.0-0.32"},{"rt":4667,"stimulus":"images/Cat/With_Backgrounds/difficulty4_image6.png","response":3,"category":"Cat","background_difficulty":"4","image_path":"images/Cat/With_Backgrounds/difficulty4_image6.png","trial_type":"image-button-response","trial_index":35,"time_elapsed":142543,"internal_node_id":"0.0-2.0-0.33"},{"rt":1235,"stimulus":"images/Broccoli/With_Backgrounds/difficulty8_image8.png","response":1,"category":"Broccoli","background_difficulty":"8","image_path":"images/Broccoli/With_Backgrounds/difficulty8_image8.png","trial_type":"image-button-response","trial_index":36,"time_elapsed":143779,"internal_node_id":"0.0-2.0-0.34"},{"rt":1042,"stimulus":"images/Human/With_Backgrounds/difficulty1_image7.png","response":5,"category":"Human","background_difficulty":"1","image_path":"images/Human/With_Backgrounds/difficulty1_image7.png","trial_type":"image-button-response","trial_index":37,"time_elapsed":144822,"internal_node_id":"0.0-2.0-0.35"},{"rt":1271,"stimulus":"images/Human/With_Backgrounds/difficulty5_image0.png","response":5,"category":"Human","background_difficulty":"5","image_path":"images/Human/With_Backgrounds/difficulty5_image0.png","trial_type":"image-button-response","trial_index":38,"time_elapsed":146094,"internal_node_id":"0.0-2.0-0.36"},{"rt":1476,"stimulus":"images/Dog/With_Backgrounds/difficulty8_image0.png","response":4,"category":"Dog","background_difficulty":"8","image_path":"images/Dog/With_Backgrounds/difficulty8_image0.png","trial_type":"image-button-response","trial_index":39,"time_elapsed":147571,"internal_node_id":"0.0-2.0-0.37"},{"rt":948,"stimulus":"images/Tree/With_Backgrounds/difficulty8_image8.png","response":6,"category":"Tree","background_difficulty":"8","image_path":"images/Tree/With_Backgrounds/difficulty8_image8.png","trial_type":"image-button-response","trial_index":40,"time_elapsed":148519,"internal_node_id":"0.0-2.0-0.38"},{"rt":853,"stimulus":"images/Human/With_Backgrounds/difficulty6_image9.png","response":5,"category":"Human","background_difficulty":"6","image_path":"images/Human/With_Backgrounds/difficulty6_image9.png","trial_type":"image-button-response","trial_index":41,"time_elapsed":149374,"internal_node_id":"0.0-2.0-0.39"},{"rt":1316,"stimulus":"images/Boat/With_Backgrounds/difficulty6_image6.png","response":0,"category":"Boat","background_difficulty":"6","image_path":"images/Boat/With_Backgrounds/difficulty6_image6.png","trial_type":"image-button-response","trial_index":42,"time_elapsed":150690,"internal_node_id":"0.0-2.0-0.40"},{"rt":1004,"stimulus":"images/Other/With_Backgrounds/difficulty6_image7.png","response":7,"category":"Other","background_difficulty":"6","image_path":"images/Other/With_Backgrounds/difficulty6_image7.png","trial_type":"image-button-response","trial_index":43,"time_elapsed":151696,"internal_node_id":"0.0-2.0-0.41"},{"rt":1042,"stimulus":"images/Cat/With_Backgrounds/difficulty8_image1.png","response":3,"category":"Cat","background_difficulty":"8","image_path":"images/Cat/With_Backgrounds/difficulty8_image1.png","trial_type":"image-button-response","trial_index":44,"time_elapsed":152738,"internal_node_id":"0.0-2.0-0.42"},{"rt":834,"stimulus":"images/Cat/With_Backgrounds/difficulty7_image9.png","response":3,"category":"Cat","background_difficulty":"7","image_path":"images/Cat/With_Backgrounds/difficulty7_image9.png","trial_type":"image-button-response","trial_index":45,"time_elapsed":153574,"internal_node_id":"0.0-2.0-0.43"},{"rt":1290,"stimulus":"images/Car/With_Backgrounds/difficulty3_image9.png","response":2,"category":"Car","background_difficulty":"3","image_path":"images/Car/With_Backgrounds/difficulty3_image9.png","trial_type":"image-button-response","trial_index":46,"time_elapsed":154864,"internal_node_id":"0.0-2.0-0.44"},{"rt":1304,"stimulus":"images/Cat/With_Backgrounds/difficulty5_image4.png","response":3,"category":"Cat","background_difficulty":"5","image_path":"images/Cat/With_Backgrounds/difficulty5_image4.png","trial_type":"image-button-response","trial_index":47,"time_elapsed":156169,"internal_node_id":"0.0-2.0-0.45"},{"rt":1137,"stimulus":"images/Tree/With_Backgrounds/difficulty4_image1.png","response":6,"category":"Tree","background_difficulty":"4","image_path":"images/Tree/With_Backgrounds/difficulty4_image1.png","trial_type":"image-button-response","trial_index":48,"time_elapsed":157306,"internal_node_id":"0.0-2.0-0.46"},{"rt":912,"stimulus":"images/Human/With_Backgrounds/difficulty4_image3.png","response":5,"category":"Human","background_difficulty":"4","image_path":"images/Human/With_Backgrounds/difficulty4_image3.png","trial_type":"image-button-response","trial_index":49,"time_elapsed":158220,"internal_node_id":"0.0-2.0-0.47"},{"rt":1584,"stimulus":"images/Cat/With_Backgrounds/difficulty6_image3.png","response":3,"category":"Cat","background_difficulty":"6","image_path":"images/Cat/With_Backgrounds/difficulty6_image3.png","trial_type":"image-button-response","trial_index":50,"time_elapsed":159805,"internal_node_id":"0.0-2.0-0.48"},{"rt":1011,"stimulus":"images/Boat/With_Backgrounds/difficulty0_image1.png","response":0,"category":"Boat","background_difficulty":"0","image_path":"images/Boat/With_Backgrounds/difficulty0_image1.png","trial_type":"image-button-response","trial_index":51,"time_elapsed":160816,"internal_node_id":"0.0-2.0-0.49"},{"rt":1015,"stimulus":"images/Boat/With_Backgrounds/difficulty1_image2.png","response":0,"category":"Boat","background_difficulty":"1","image_path":"images/Boat/With_Backgrounds/difficulty1_image2.png","trial_type":"image-button-response","trial_index":52,"time_elapsed":161833,"internal_node_id":"0.0-2.0-0.50"},{"rt":890,"stimulus":"images/Boat/With_Backgrounds/difficulty7_image3.png","response":0,"category":"Boat","background_difficulty":"7","image_path":"images/Boat/With_Backgrounds/difficulty7_image3.png","trial_type":"image-button-response","trial_index":53,"time_elapsed":162723,"internal_node_id":"0.0-2.0-0.51"},{"rt":1100,"stimulus":"images/Car/With_Backgrounds/difficulty4_image8.png","response":2,"category":"Car","background_difficulty":"4","image_path":"images/Car/With_Backgrounds/difficulty4_image8.png","trial_type":"image-button-response","trial_index":54,"time_elapsed":163824,"internal_node_id":"0.0-2.0-0.52"},{"rt":1043,"stimulus":"images/Dog/With_Backgrounds/difficulty4_image8.png","response":4,"category":"Dog","background_difficulty":"4","image_path":"images/Dog/With_Backgrounds/difficulty4_image8.png","trial_type":"image-button-response","trial_index":55,"time_elapsed":164867,"internal_node_id":"0.0-2.0-0.53"},{"rt":984,"stimulus":"images/Broccoli/With_Backgrounds/difficulty7_image2.png","response":1,"category":"Broccoli","background_difficulty":"7","image_path":"images/Broccoli/With_Backgrounds/difficulty7_image2.png","trial_type":"image-button-response","trial_index":56,"time_elapsed":165852,"internal_node_id":"0.0-2.0-0.54"},{"rt":1344,"stimulus":"images/Tree/With_Backgrounds/difficulty5_image0.png","response":6,"category":"Tree","background_difficulty":"5","image_path":"images/Tree/With_Backgrounds/difficulty5_image0.png","trial_type":"image-button-response","trial_index":57,"time_elapsed":167198,"internal_node_id":"0.0-2.0-0.55"},{"rt":962,"stimulus":"images/Tree/With_Backgrounds/difficulty7_image3.png","response":6,"category":"Tree","background_difficulty":"7","image_path":"images/Tree/With_Backgrounds/difficulty7_image3.png","trial_type":"image-button-response","trial_index":58,"time_elapsed":168160,"internal_node_id":"0.0-2.0-0.56"},{"rt":982,"stimulus":"images/Human/With_Backgrounds/difficulty2_image1.png","response":5,"category":"Human","background_difficulty":"2","image_path":"images/Human/With_Backgrounds/difficulty2_image1.png","trial_type":"image-button-response","trial_index":59,"time_elapsed":169143,"internal_node_id":"0.0-2.0-0.57"},{"rt":1804,"stimulus":"images/Car/With_Backgrounds/difficulty7_image7.png","response":2,"category":"Car","background_difficulty":"7","image_path":"images/Car/With_Backgrounds/difficulty7_image7.png","trial_type":"image-button-response","trial_index":60,"time_elapsed":170949,"internal_node_id":"0.0-2.0-0.58"},{"rt":842,"stimulus":"images/Human/With_Backgrounds/difficulty8_image2.png","response":5,"category":"Human","background_difficulty":"8","image_path":"images/Human/With_Backgrounds/difficulty8_image2.png","trial_type":"image-button-response","trial_index":61,"time_elapsed":171791,"internal_node_id":"0.0-2.0-0.59"},{"rt":1057,"stimulus":"images/Dog/With_Backgrounds/difficulty5_image4.png","response":4,"category":"Dog","background_difficulty":"5","image_path":"images/Dog/With_Backgrounds/difficulty5_image4.png","trial_type":"image-button-response","trial_index":62,"time_elapsed":172849,"internal_node_id":"0.0-2.0-0.60"},{"rt":1176,"stimulus":"images/Other/With_Backgrounds/difficulty7_image3.png","response":7,"category":"Other","background_difficulty":"7","image_path":"images/Other/With_Backgrounds/difficulty7_image3.png","trial_type":"image-button-response","trial_index":63,"time_elapsed":174026,"internal_node_id":"0.0-2.0-0.61"},{"rt":1132,"stimulus":"images/Broccoli/With_Backgrounds/difficulty1_image4.png","response":1,"category":"Broccoli","background_difficulty":"1","image_path":"images/Broccoli/With_Backgrounds/difficulty1_image4.png","trial_type":"image-button-response","trial_index":64,"time_elapsed":175159,"internal_node_id":"0.0-2.0-0.62"},{"rt":936,"stimulus":"images/Cat/With_Backgrounds/difficulty2_image5.png","response":3,"category":"Cat","background_difficulty":"2","image_path":"images/Cat/With_Backgrounds/difficulty2_image5.png","trial_type":"image-button-response","trial_index":65,"time_elapsed":176096,"internal_node_id":"0.0-2.0-0.63"},{"rt":936,"stimulus":"images/Tree/With_Backgrounds/difficulty3_image9.png","response":6,"category":"Tree","background_difficulty":"3","image_path":"images/Tree/With_Backgrounds/difficulty3_image9.png","trial_type":"image-button-response","trial_index":66,"time_elapsed":177033,"internal_node_id":"0.0-2.0-0.64"},{"rt":1269,"stimulus":"images/Tree/With_Backgrounds/difficulty6_image4.png","response":6,"category":"Tree","background_difficulty":"6","image_path":"images/Tree/With_Backgrounds/difficulty6_image4.png","trial_type":"image-button-response","trial_index":67,"time_elapsed":178303,"internal_node_id":"0.0-2.0-0.65"},{"rt":1183,"stimulus":"images/Car/With_Backgrounds/difficulty1_image0.png","response":2,"category":"Car","background_difficulty":"1","image_path":"images/Car/With_Backgrounds/difficulty1_image0.png","trial_type":"image-button-response","trial_index":68,"time_elapsed":179487,"internal_node_id":"0.0-2.0-0.66"},{"rt":1022,"stimulus":"images/Dog/With_Backgrounds/difficulty3_image2.png","response":4,"category":"Dog","background_difficulty":"3","image_path":"images/Dog/With_Backgrounds/difficulty3_image2.png","trial_type":"image-button-response","trial_index":69,"time_elapsed":180509,"internal_node_id":"0.0-2.0-0.67"},{"rt":983,"stimulus":"images/Broccoli/With_Backgrounds/difficulty3_image5.png","response":1,"category":"Broccoli","background_difficulty":"3","image_path":"images/Broccoli/With_Backgrounds/difficulty3_image5.png","trial_type":"image-button-response","trial_index":70,"time_elapsed":181493,"internal_node_id":"0.0-2.0-0.68"},{"rt":961,"stimulus":"images/Broccoli/With_Backgrounds/difficulty2_image9.png","response":1,"category":"Broccoli","background_difficulty":"2","image_path":"images/Broccoli/With_Backgrounds/difficulty2_image9.png","trial_type":"image-button-response","trial_index":71,"time_elapsed":182455,"internal_node_id":"0.0-2.0-0.69"},{"rt":1003,"stimulus":"images/Other/With_Backgrounds/difficulty1_image8.png","response":7,"category":"Other","background_difficulty":"1","image_path":"images/Other/With_Backgrounds/difficulty1_image8.png","trial_type":"image-button-response","trial_index":72,"time_elapsed":183460,"internal_node_id":"0.0-2.0-0.70"},{"rt":1003,"stimulus":"images/Boat/With_Backgrounds/difficulty8_image5.png","response":0,"category":"Boat","background_difficulty":"8","image_path":"images/Boat/With_Backgrounds/difficulty8_image5.png","trial_type":"image-button-response","trial_index":73,"time_elapsed":184463,"internal_node_id":"0.0-2.0-0.71"},{"rt":1172,"stimulus":["<h2>Press the button below to end experiment.</h2><p>Thank you for participating!</p>"],"response":0,"trial_type":"html-button-response","trial_index":74,"time_elapsed":185635,"internal_node_id":"0.0-3.0"}]