[{"success":true,"timeout":false,"failed_images":[],"failed_audio":[],"failed_video":[],"trial_type":"preload","trial_index":0,"time_elapsed":619,"internal_node_id":"0.0-0.0"},{"rt":1133,"stimulus":["<h2>Noisy background image classification</h2><p>In this experiment you will briefly see images on top of colored squares of various sizes.</p><p>Your task is to report what each image is, selecting \"None of the Above\" if none of the given options are correct.</p> <p>The possible options are <strong>Boat</strong>, <strong>Broccoli</strong>, <strong>Car</strong>, <strong>Cat</strong>, <strong>Dog</strong>, <strong>Human</strong>, <strong>Tree</strong>, and <strong>None of the Above</strong>"],"response":0,"trial_type":"html-button-response","trial_index":1,"time_elapsed":1755,"internal_node_id":"0.0-1.0"},{"rt":4387,"stimulus":"images/Car/With_Backgrounds/difficulty2_image0.png","response":2,"category":"Car","background_difficulty":"2","image_path":"images/Car/With_Backgrounds/difficulty2_image0.png","trial_type":"image-button-response","trial_index":2,"time_elapsed":6153,"internal_node_id":"0.0-2.0-0.0"},{"rt":1838,"stimulus":"images/Cat/With_Backgrounds/difficulty4_image1.png","response":3,"category":"Cat","background_difficulty":"4","image_path":"images/Cat/With_Backgrounds/difficulty4_image1.png","trial_type":"image-button-response","trial_index":3,"time_elapsed":8004,"internal_node_id":"0.0-2.0-0.1"},{"rt":1703,"stimulus":"images/Human/With_Backgrounds/difficulty5_image8.png","response":5,"category":"Human","background_difficulty":"5","image_path":"images/Human/With_Backgrounds/difficulty5_image8.png","trial_type":"image-button-response","trial_index":4,"time_elapsed":9721,"internal_node_id":"0.0-2.0-0.2"},{"rt":2705,"stimulus":"images/Broccoli/With_Backgrounds/difficulty1_image6.png","response":1,"category":"Broccoli","background_difficulty":"1","image_path":"images/Broccoli/With_Backgrounds/difficulty1_image6.png","trial_type":"image-button-response","trial_index":5,"time_elapsed":12437,"internal_node_id":"0.0-2.0-0.3"},{"rt":1840,"stimulus":"images/Dog/With_Backgrounds/difficulty4_image8.png","response":4,"category":"Dog","background_difficulty":"4","image_path":"images/Dog/With_Backgrounds/difficulty4_image8.png","trial_type":"image-button-response","trial_index":6,"time_elapsed":14288,"internal_node_id":"0.0-2.0-0.4"},{"rt":1687,"stimulus":"images/Human/With_Backgrounds/difficulty7_image1.png","response":5,"category":"Human","background_difficulty":"7","image_path":"images/Human/With_Backgrounds/difficulty7_image1.png","trial_type":"image-button-response","trial_index":7,"time_elapsed":15988,"internal_node_id":"0.0-2.0-0.5"},{"rt":5168,"stimulus":"images/Other/With_Backgrounds/difficulty8_image5.png","response":7,"category":"Other","background_difficulty":"8","image_path":"images/Other/With_Backgrounds/difficulty8_image5.png","trial_type":"image-button-response","trial_index":8,"time_elapsed":21170,"internal_node_id":"0.0-2.0-0.6"},{"rt":1956,"stimulus":"images/Dog/With_Backgrounds/difficulty7_image9.png","response":4,"category":"Dog","background_difficulty":"7","image_path":"images/Dog/With_Backgrounds/difficulty7_image9.png","trial_type":"image-button-response","trial_index":9,"time_elapsed":23139,"internal_node_id":"0.0-2.0-0.7"},{"rt":1743,"stimulus":"images/Dog/With_Backgrounds/difficulty8_image5.png","response":4,"category":"Dog","background_difficulty":"8","image_path":"images/Dog/With_Backgrounds/difficulty8_image5.png","trial_type":"image-button-response","trial_index":10,"time_elapsed":24887,"internal_node_id":"0.0-2.0-0.8"},{"rt":1508,"stimulus":"images/Dog/With_Backgrounds/difficulty1_image2.png","response":4,"category":"Dog","background_difficulty":"1","image_path":"images/Dog/With_Backgrounds/difficulty1_image2.png","trial_type":"image-button-response","trial_index":11,"time_elapsed":26406,"internal_node_id":"0.0-2.0-0.9"},{"rt":3917,"stimulus":"images/Other/With_Backgrounds/difficulty7_image0.png","response":7,"category":"Other","background_difficulty":"7","image_path":"images/Other/With_Backgrounds/difficulty7_image0.png","trial_type":"image-button-response","trial_index":12,"time_elapsed":30337,"internal_node_id":"0.0-2.0-0.10"},{"rt":1973,"stimulus":"images/Cat/With_Backgrounds/difficulty2_image3.png","response":3,"category":"Cat","background_difficulty":"2","image_path":"images/Cat/With_Backgrounds/difficulty2_image3.png","trial_type":"image-button-response","trial_index":13,"time_elapsed":32322,"internal_node_id":"0.0-2.0-0.11"},{"rt":1407,"stimulus":"images/Car/With_Backgrounds/difficulty1_image4.png","response":2,"category":"Car","background_difficulty":"1","image_path":"images/Car/With_Backgrounds/difficulty1_image4.png","trial_type":"image-button-response","trial_index":14,"time_elapsed":33738,"internal_node_id":"0.0-2.0-0.12"},{"rt":1455,"stimulus":"images/Human/With_Backgrounds/difficulty2_image0.png","response":5,"category":"Human","background_difficulty":"2","image_path":"images/Human/With_Backgrounds/difficulty2_image0.png","trial_type":"image-button-response","trial_index":15,"time_elapsed":35205,"internal_node_id":"0.0-2.0-0.13"},{"rt":2854,"stimulus":"images/Boat/With_Backgrounds/difficulty5_image5.png","response":0,"category":"Boat","background_difficulty":"5","image_path":"images/Boat/With_Backgrounds/difficulty5_image5.png","trial_type":"image-button-response","trial_index":16,"time_elapsed":38071,"internal_node_id":"0.0-2.0-0.14"},{"rt":2273,"stimulus":"images/Broccoli/With_Backgrounds/difficulty3_image9.png","response":1,"category":"Broccoli","background_difficulty":"3","image_path":"images/Broccoli/With_Backgrounds/difficulty3_image9.png","trial_type":"image-button-response","trial_index":17,"time_elapsed":40355,"internal_node_id":"0.0-2.0-0.15"},{"rt":1707,"stimulus":"images/Dog/With_Backgrounds/difficulty2_image6.png","response":4,"category":"Dog","background_difficulty":"2","image_path":"images/Dog/With_Backgrounds/difficulty2_image6.png","trial_type":"image-button-response","trial_index":18,"time_elapsed":42072,"internal_node_id":"0.0-2.0-0.16"},{"rt":1707,"stimulus":"images/Broccoli/With_Backgrounds/difficulty8_image8.png","response":1,"category":"Broccoli","background_difficulty":"8","image_path":"images/Broccoli/With_Backgrounds/difficulty8_image8.png","trial_type":"image-button-response","trial_index":19,"time_elapsed":43788,"internal_node_id":"0.0-2.0-0.17"},{"rt":2873,"stimulus":"images/Other/With_Backgrounds/difficulty5_image3.png","response":7,"category":"Other","background_difficulty":"5","image_path":"images/Other/With_Backgrounds/difficulty5_image3.png","trial_type":"image-button-response","trial_index":20,"time_elapsed":46672,"internal_node_id":"0.0-2.0-0.18"},{"rt":1520,"stimulus":"images/Tree/With_Backgrounds/difficulty7_image5.png","response":6,"category":"Tree","background_difficulty":"7","image_path":"images/Tree/With_Backgrounds/difficulty7_image5.png","trial_type":"image-button-response","trial_index":21,"time_elapsed":48205,"internal_node_id":"0.0-2.0-0.19"},{"rt":2424,"stimulus":"images/Car/With_Backgrounds/difficulty3_image2.png","response":2,"category":"Car","background_difficulty":"3","image_path":"images/Car/With_Backgrounds/difficulty3_image2.png","trial_type":"image-button-response","trial_index":22,"time_elapsed":50639,"internal_node_id":"0.0-2.0-0.20"},{"rt":1652,"stimulus":"images/Tree/With_Backgrounds/difficulty4_image8.png","response":6,"category":"Tree","background_difficulty":"4","image_path":"images/Tree/With_Backgrounds/difficulty4_image8.png","trial_type":"image-button-response","trial_index":23,"time_elapsed":52305,"internal_node_id":"0.0-2.0-0.21"},{"rt":2205,"stimulus":"images/Dog/With_Backgrounds/difficulty6_image0.png","response":4,"category":"Dog","background_difficulty":"6","image_path":"images/Dog/With_Backgrounds/difficulty6_image0.png","trial_type":"image-button-response","trial_index":24,"time_elapsed":54523,"internal_node_id":"0.0-2.0-0.22"},{"rt":1421,"stimulus":"images/Human/With_Backgrounds/difficulty8_image5.png","response":5,"category":"Human","background_difficulty":"8","image_path":"images/Human/With_Backgrounds/difficulty8_image5.png","trial_type":"image-button-response","trial_index":25,"time_elapsed":55957,"internal_node_id":"0.0-2.0-0.23"},{"rt":2519,"stimulus":"images/Boat/With_Backgrounds/difficulty8_image9.png","response":0,"category":"Boat","background_difficulty":"8","image_path":"images/Boat/With_Backgrounds/difficulty8_image9.png","trial_type":"image-button-response","trial_index":26,"time_elapsed":58489,"internal_node_id":"0.0-2.0-0.24"},{"rt":1707,"stimulus":"images/Tree/With_Backgrounds/difficulty0_image2.png","response":6,"category":"Tree","background_difficulty":"0","image_path":"images/Tree/With_Backgrounds/difficulty0_image2.png","trial_type":"image-button-response","trial_index":27,"time_elapsed":60207,"internal_node_id":"0.0-2.0-0.25"},{"rt":2838,"stimulus":"images/Other/With_Backgrounds/difficulty3_image1.png","response":7,"category":"Other","background_difficulty":"3","image_path":"images/Other/With_Backgrounds/difficulty3_image1.png","trial_type":"image-button-response","trial_index":28,"time_elapsed":63056,"internal_node_id":"0.0-2.0-0.26"},{"rt":1574,"stimulus":"images/Tree/With_Backgrounds/difficulty1_image7.png","response":6,"category":"Tree","background_difficulty":"1","image_path":"images/Tree/With_Backgrounds/difficulty1_image7.png","trial_type":"image-button-response","trial_index":29,"time_elapsed":64640,"internal_node_id":"0.0-2.0-0.27"},{"rt":3423,"stimulus":"images/Boat/With_Backgrounds/difficulty2_image6.png","response":0,"category":"Boat","background_difficulty":"2","image_path":"images/Boat/With_Backgrounds/difficulty2_image6.png","trial_type":"image-button-response","trial_index":30,"time_elapsed":68073,"internal_node_id":"0.0-2.0-0.28"},{"rt":2289,"stimulus":"images/Broccoli/With_Backgrounds/difficulty5_image0.png","response":1,"category":"Broccoli","background_difficulty":"5","image_path":"images/Broccoli/With_Backgrounds/difficulty5_image0.png","trial_type":"image-button-response","trial_index":31,"time_elapsed":70374,"internal_node_id":"0.0-2.0-0.29"},{"rt":4540,"stimulus":"images/Other/With_Backgrounds/difficulty1_image2.png","response":7,"category":"Other","background_difficulty":"1","image_path":"images/Other/With_Backgrounds/difficulty1_image2.png","trial_type":"image-button-response","trial_index":32,"time_elapsed":74925,"internal_node_id":"0.0-2.0-0.30"},{"rt":2003,"stimulus":"images/Broccoli/With_Backgrounds/difficulty2_image2.png","response":1,"category":"Broccoli","background_difficulty":"2","image_path":"images/Broccoli/With_Backgrounds/difficulty2_image2.png","trial_type":"image-button-response","trial_index":33,"time_elapsed":76941,"internal_node_id":"0.0-2.0-0.31"},{"rt":1472,"stimulus":"images/Broccoli/With_Backgrounds/difficulty0_image3.png","response":1,"category":"Broccoli","background_difficulty":"0","image_path":"images/Broccoli/With_Backgrounds/difficulty0_image3.png","trial_type":"image-button-response","trial_index":34,"time_elapsed":78423,"internal_node_id":"0.0-2.0-0.32"},{"rt":1589,"stimulus":"images/Tree/With_Backgrounds/difficulty2_image6.png","response":6,"category":"Tree","background_difficulty":"2","image_path":"images/Tree/With_Backgrounds/difficulty2_image6.png","trial_type":"image-button-response","trial_index":35,"time_elapsed":80023,"internal_node_id":"0.0-2.0-0.33"},{"rt":4939,"stimulus":"images/Other/With_Backgrounds/difficulty0_image6.png","response":7,"category":"Other","background_difficulty":"0","image_path":"images/Other/With_Backgrounds/difficulty0_image6.png","trial_type":"image-button-response","trial_index":36,"time_elapsed":84974,"internal_node_id":"0.0-2.0-0.34"},{"rt":2488,"stimulus":"images/Other/With_Backgrounds/difficulty4_image4.png","response":7,"category":"Other","background_difficulty":"4","image_path":"images/Other/With_Backgrounds/difficulty4_image4.png","trial_type":"image-button-response","trial_index":37,"time_elapsed":87473,"internal_node_id":"0.0-2.0-0.35"},{"rt":1924,"stimulus":"images/Cat/With_Backgrounds/difficulty1_image4.png","response":3,"category":"Cat","background_difficulty":"1","image_path":"images/Cat/With_Backgrounds/difficulty1_image4.png","trial_type":"image-button-response","trial_index":38,"time_elapsed":89408,"internal_node_id":"0.0-2.0-0.36"},{"rt":1839,"stimulus":"images/Tree/With_Backgrounds/difficulty6_image4.png","response":6,"category":"Tree","background_difficulty":"6","image_path":"images/Tree/With_Backgrounds/difficulty6_image4.png","trial_type":"image-button-response","trial_index":39,"time_elapsed":91257,"internal_node_id":"0.0-2.0-0.37"},{"rt":2739,"stimulus":"images/Boat/With_Backgrounds/difficulty3_image0.png","response":0,"category":"Boat","background_difficulty":"3","image_path":"images/Boat/With_Backgrounds/difficulty3_image0.png","trial_type":"image-button-response","trial_index":40,"time_elapsed":94007,"internal_node_id":"0.0-2.0-0.38"},{"rt":2208,"stimulus":"images/Tree/With_Backgrounds/difficulty5_image1.png","response":6,"category":"Tree","background_difficulty":"5","image_path":"images/Tree/With_Backgrounds/difficulty5_image1.png","trial_type":"image-button-response","trial_index":41,"time_elapsed":96225,"internal_node_id":"0.0-2.0-0.39"},{"rt":2404,"stimulus":"images/Cat/With_Backgrounds/difficulty6_image6.png","response":3,"category":"Cat","background_difficulty":"6","image_path":"images/Cat/With_Backgrounds/difficulty6_image6.png","trial_type":"image-button-response","trial_index":42,"time_elapsed":98641,"internal_node_id":"0.0-2.0-0.40"},{"rt":1452,"stimulus":"images/Cat/With_Backgrounds/difficulty8_image2.png","response":3,"category":"Cat","background_difficulty":"8","image_path":"images/Cat/With_Backgrounds/difficulty8_image2.png","trial_type":"image-button-response","trial_index":43,"time_elapsed":100107,"internal_node_id":"0.0-2.0-0.41"},{"rt":1705,"stimulus":"images/Human/With_Backgrounds/difficulty0_image9.png","response":5,"category":"Human","background_difficulty":"0","image_path":"images/Human/With_Backgrounds/difficulty0_image9.png","trial_type":"image-button-response","trial_index":44,"time_elapsed":101824,"internal_node_id":"0.0-2.0-0.42"},{"rt":1364,"stimulus":"images/Human/With_Backgrounds/difficulty1_image3.png","response":5,"category":"Human","background_difficulty":"1","image_path":"images/Human/With_Backgrounds/difficulty1_image3.png","trial_type":"image-button-response","trial_index":45,"time_elapsed":103191,"internal_node_id":"0.0-2.0-0.43"},{"rt":2122,"stimulus":"images/Car/With_Backgrounds/difficulty7_image7.png","response":2,"category":"Car","background_difficulty":"7","image_path":"images/Car/With_Backgrounds/difficulty7_image7.png","trial_type":"image-button-response","trial_index":46,"time_elapsed":105324,"internal_node_id":"0.0-2.0-0.44"},{"rt":1820,"stimulus":"images/Broccoli/With_Backgrounds/difficulty4_image1.png","response":1,"category":"Broccoli","background_difficulty":"4","image_path":"images/Broccoli/With_Backgrounds/difficulty4_image1.png","trial_type":"image-button-response","trial_index":47,"time_elapsed":107157,"internal_node_id":"0.0-2.0-0.45"},{"rt":2189,"stimulus":"images/Car/With_Backgrounds/difficulty5_image6.png","response":2,"category":"Car","background_difficulty":"5","image_path":"images/Car/With_Backgrounds/difficulty5_image6.png","trial_type":"image-button-response","trial_index":48,"time_elapsed":109357,"internal_node_id":"0.0-2.0-0.46"},{"rt":1860,"stimulus":"images/Other/With_Backgrounds/difficulty6_image7.png","response":7,"category":"Other","background_difficulty":"6","image_path":"images/Other/With_Backgrounds/difficulty6_image7.png","trial_type":"image-button-response","trial_index":49,"time_elapsed":111224,"internal_node_id":"0.0-2.0-0.47"},{"rt":1920,"stimulus":"images/Dog/With_Backgrounds/difficulty0_image1.png","response":4,"category":"Dog","background_difficulty":"0","image_path":"images/Dog/With_Backgrounds/difficulty0_image1.png","trial_type":"image-button-response","trial_index":50,"time_elapsed":113157,"internal_node_id":"0.0-2.0-0.48"},{"rt":1406,"stimulus":"images/Human/With_Backgrounds/difficulty3_image2.png","response":5,"category":"Human","background_difficulty":"3","image_path":"images/Human/With_Backgrounds/difficulty3_image2.png","trial_type":"image-button-response","trial_index":51,"time_elapsed":114575,"internal_node_id":"0.0-2.0-0.49"},{"rt":1753,"stimulus":"images/Car/With_Backgrounds/difficulty8_image1.png","response":2,"category":"Car","background_difficulty":"8","image_path":"images/Car/With_Backgrounds/difficulty8_image1.png","trial_type":"image-button-response","trial_index":52,"time_elapsed":116342,"internal_node_id":"0.0-2.0-0.50"},{"rt":1988,"stimulus":"images/Dog/With_Backgrounds/difficulty5_image7.png","response":4,"category":"Dog","background_difficulty":"5","image_path":"images/Dog/With_Backgrounds/difficulty5_image7.png","trial_type":"image-button-response","trial_index":53,"time_elapsed":118340,"internal_node_id":"0.0-2.0-0.51"},{"rt":1697,"stimulus":"images/Tree/With_Backgrounds/difficulty3_image9.png","response":6,"category":"Tree","background_difficulty":"3","image_path":"images/Tree/With_Backgrounds/difficulty3_image9.png","trial_type":"image-button-response","trial_index":54,"time_elapsed":120043,"internal_node_id":"0.0-2.0-0.52"},{"rt":1825,"stimulus":"images/Cat/With_Backgrounds/difficulty3_image9.png","response":3,"category":"Cat","background_difficulty":"3","image_path":"images/Cat/With_Backgrounds/difficulty3_image9.png","trial_type":"image-button-response","trial_index":55,"time_elapsed":121875,"internal_node_id":"0.0-2.0-0.53"},{"rt":2157,"stimulus":"images/Boat/With_Backgrounds/difficulty6_image2.png","response":0,"category":"Boat","background_difficulty":"6","image_path":"images/Boat/With_Backgrounds/difficulty6_image2.png","trial_type":"image-button-response","trial_index":56,"time_elapsed":124042,"internal_node_id":"0.0-2.0-0.54"},{"rt":1505,"stimulus":"images/Car/With_Backgrounds/difficulty6_image5.png","response":2,"category":"Car","background_difficulty":"6","image_path":"images/Car/With_Backgrounds/difficulty6_image5.png","trial_type":"image-button-response","trial_index":57,"time_elapsed":125558,"internal_node_id":"0.0-2.0-0.55"},{"rt":1589,"stimulus":"images/Human/With_Backgrounds/difficulty4_image4.png","response":5,"category":"Human","background_difficulty":"4","image_path":"images/Human/With_Backgrounds/difficulty4_image4.png","trial_type":"image-button-response","trial_index":58,"time_elapsed":127159,"internal_node_id":"0.0-2.0-0.56"},{"rt":1906,"stimulus":"images/Boat/With_Backgrounds/difficulty0_image8.png","response":0,"category":"Boat","background_difficulty":"0","image_path":"images/Boat/With_Backgrounds/difficulty0_image8.png","trial_type":"image-button-response","trial_index":59,"time_elapsed":129075,"internal_node_id":"0.0-2.0-0.57"},{"rt":1555,"stimulus":"images/Cat/With_Backgrounds/difficulty0_image8.png","response":3,"category":"Cat","background_difficulty":"0","image_path":"images/Cat/With_Backgrounds/difficulty0_image8.png","trial_type":"image-button-response","trial_index":60,"time_elapsed":130642,"internal_node_id":"0.0-2.0-0.58"},{"rt":1622,"stimulus":"images/Broccoli/With_Backgrounds/difficulty6_image7.png","response":1,"category":"Broccoli","background_difficulty":"6","image_path":"images/Broccoli/With_Backgrounds/difficulty6_image7.png","trial_type":"image-button-response","trial_index":61,"time_elapsed":132276,"internal_node_id":"0.0-2.0-0.59"},{"rt":1830,"stimulus":"images/Boat/With_Backgrounds/difficulty7_image7.png","response":0,"category":"Boat","background_difficulty":"7","image_path":"images/Boat/With_Backgrounds/difficulty7_image7.png","trial_type":"image-button-response","trial_index":62,"time_elapsed":134109,"internal_node_id":"0.0-2.0-0.60"},{"rt":1440,"stimulus":"images/Boat/With_Backgrounds/difficulty4_image3.png","response":0,"category":"Boat","background_difficulty":"4","image_path":"images/Boat/With_Backgrounds/difficulty4_image3.png","trial_type":"image-button-response","trial_index":63,"time_elapsed":135559,"internal_node_id":"0.0-2.0-0.61"},{"rt":1757,"stimulus":"images/Car/With_Backgrounds/difficulty4_image8.png","response":2,"category":"Car","background_difficulty":"4","image_path":"images/Car/With_Backgrounds/difficulty4_image8.png","trial_type":"image-button-response","trial_index":64,"time_elapsed":137326,"internal_node_id":"0.0-2.0-0.62"},{"rt":2821,"stimulus":"images/Other/With_Backgrounds/difficulty2_image8.png","response":7,"category":"Other","background_difficulty":"2","image_path":"images/Other/With_Backgrounds/difficulty2_image8.png","trial_type":"image-button-response","trial_index":65,"time_elapsed":140159,"internal_node_id":"0.0-2.0-0.63"},{"rt":1601,"stimulus":"images/Dog/With_Backgrounds/difficulty3_image4.png","response":4,"category":"Dog","background_difficulty":"3","image_path":"images/Dog/With_Backgrounds/difficulty3_image4.png","trial_type":"image-button-response","trial_index":66,"time_elapsed":141776,"internal_node_id":"0.0-2.0-0.64"},{"rt":1550,"stimulus":"images/Tree/With_Backgrounds/difficulty8_image3.png","response":6,"category":"Tree","background_difficulty":"8","image_path":"images/Tree/With_Backgrounds/difficulty8_image3.png","trial_type":"image-button-response","trial_index":67,"time_elapsed":143342,"internal_node_id":"0.0-2.0-0.65"},{"rt":1505,"stimulus":"images/Broccoli/With_Backgrounds/difficulty7_image5.png","response":1,"category":"Broccoli","background_difficulty":"7","image_path":"images/Broccoli/With_Backgrounds/difficulty7_image5.png","trial_type":"image-button-response","trial_index":68,"time_elapsed":144862,"internal_node_id":"0.0-2.0-0.66"},{"rt":1536,"stimulus":"images/Human/With_Backgrounds/difficulty6_image6.png","response":5,"category":"Human","background_difficulty":"6","image_path":"images/Human/With_Backgrounds/difficulty6_image6.png","trial_type":"image-button-response","trial_index":69,"time_elapsed":146414,"internal_node_id":"0.0-2.0-0.67"},{"rt":2381,"stimulus":"images/Cat/With_Backgrounds/difficulty7_image7.png","response":3,"category":"Cat","background_difficulty":"7","image_path":"images/Cat/With_Backgrounds/difficulty7_image7.png","trial_type":"image-button-response","trial_index":70,"time_elapsed":148810,"internal_node_id":"0.0-2.0-0.68"},{"rt":1939,"stimulus":"images/Boat/With_Backgrounds/difficulty1_image4.png","response":0,"category":"Boat","background_difficulty":"1","image_path":"images/Boat/With_Backgrounds/difficulty1_image4.png","trial_type":"image-button-response","trial_index":71,"time_elapsed":150759,"internal_node_id":"0.0-2.0-0.69"},{"rt":1556,"stimulus":"images/Cat/With_Backgrounds/difficulty5_image0.png","response":3,"category":"Cat","background_difficulty":"5","image_path":"images/Cat/With_Backgrounds/difficulty5_image0.png","trial_type":"image-button-response","trial_index":72,"time_elapsed":152326,"internal_node_id":"0.0-2.0-0.70"},{"rt":1823,"stimulus":"images/Car/With_Backgrounds/difficulty0_image9.png","response":2,"category":"Car","background_difficulty":"0","image_path":"images/Car/With_Backgrounds/difficulty0_image9.png","trial_type":"image-button-response","trial_index":73,"time_elapsed":154160,"internal_node_id":"0.0-2.0-0.71"},{"rt":2897,"stimulus":["<h2>Press the button below to end experiment.</h2><p>Thank you for participating!</p>"],"response":0,"trial_type":"html-button-response","trial_index":74,"time_elapsed":157059,"internal_node_id":"0.0-3.0"}]