[{"success":true,"timeout":false,"failed_images":[],"failed_audio":[],"failed_video":[],"trial_type":"preload","trial_index":0,"time_elapsed":2691,"internal_node_id":"0.0-0.0"},{"rt":12886,"stimulus":["<h2>Noisy background image classification</h2><p>In this experiment you will briefly see images on top of colored squares of various sizes.</p><p>Your task is to report what each image is, selecting \"None of the Above\" if none of the given options are correct.</p> <p>The possible options are <strong>Boat</strong>, <strong>Broccoli</strong>, <strong>Car</strong>, <strong>Cat</strong>, <strong>Dog</strong>, <strong>Human</strong>, <strong>Tree</strong>, and <strong>None of the Above</strong>"],"response":0,"trial_type":"html-button-response","trial_index":1,"time_elapsed":15587,"internal_node_id":"0.0-1.0"},{"rt":6295,"stimulus":"images/Cat/With_Backgrounds/difficulty5_image6.png","response":3,"category":"Cat","background_difficulty":"5","image_path":"images/Cat/With_Backgrounds/difficulty5_image6.png","trial_type":"image-button-response","trial_index":2,"time_elapsed":21914,"internal_node_id":"0.0-2.0-0.0"},{"rt":2738,"stimulus":"images/Tree/With_Backgrounds/difficulty3_image9.png","response":6,"category":"Tree","background_difficulty":"3","image_path":"images/Tree/With_Backgrounds/difficulty3_image9.png","trial_type":"image-button-response","trial_index":3,"time_elapsed":24669,"internal_node_id":"0.0-2.0-0.1"},{"rt":2181,"stimulus":"images/Car/With_Backgrounds/difficulty6_image3.png","response":2,"category":"Car","background_difficulty":"6","image_path":"images/Car/With_Backgrounds/difficulty6_image3.png","trial_type":"image-button-response","trial_index":4,"time_elapsed":26864,"internal_node_id":"0.0-2.0-0.2"},{"rt":2254,"stimulus":"images/Human/With_Backgrounds/difficulty6_image8.png","response":5,"category":"Human","background_difficulty":"6","image_path":"images/Human/With_Backgrounds/difficulty6_image8.png","trial_type":"image-button-response","trial_index":5,"time_elapsed":29134,"internal_node_id":"0.0-2.0-0.3"},{"rt":1980,"stimulus":"images/Tree/With_Backgrounds/difficulty4_image4.png","response":6,"category":"Tree","background_difficulty":"4","image_path":"images/Tree/With_Backgrounds/difficulty4_image4.png","trial_type":"image-button-response","trial_index":6,"time_elapsed":31128,"internal_node_id":"0.0-2.0-0.4"},{"rt":3167,"stimulus":"images/Cat/With_Backgrounds/difficulty6_image7.png","response":3,"category":"Cat","background_difficulty":"6","image_path":"images/Cat/With_Backgrounds/difficulty6_image7.png","trial_type":"image-button-response","trial_index":7,"time_elapsed":34313,"internal_node_id":"0.0-2.0-0.5"},{"rt":1937,"stimulus":"images/Broccoli/With_Backgrounds/difficulty0_image1.png","response":1,"category":"Broccoli","background_difficulty":"0","image_path":"images/Broccoli/With_Backgrounds/difficulty0_image1.png","trial_type":"image-button-response","trial_index":8,"time_elapsed":36266,"internal_node_id":"0.0-2.0-0.6"},{"rt":1842,"stimulus":"images/Tree/With_Backgrounds/difficulty5_image5.png","response":6,"category":"Tree","background_difficulty":"5","image_path":"images/Tree/With_Backgrounds/difficulty5_image5.png","trial_type":"image-button-response","trial_index":9,"time_elapsed":38125,"internal_node_id":"0.0-2.0-0.7"},{"rt":2410,"stimulus":"images/Dog/With_Backgrounds/difficulty5_image0.png","response":4,"category":"Dog","background_difficulty":"5","image_path":"images/Dog/With_Backgrounds/difficulty5_image0.png","trial_type":"image-button-response","trial_index":10,"time_elapsed":40547,"internal_node_id":"0.0-2.0-0.8"},{"rt":1695,"stimulus":"images/Boat/With_Backgrounds/difficulty0_image8.png","response":0,"category":"Boat","background_difficulty":"0","image_path":"images/Boat/With_Backgrounds/difficulty0_image8.png","trial_type":"image-button-response","trial_index":11,"time_elapsed":42256,"internal_node_id":"0.0-2.0-0.9"},{"rt":1909,"stimulus":"images/Cat/With_Backgrounds/difficulty2_image9.png","response":3,"category":"Cat","background_difficulty":"2","image_path":"images/Cat/With_Backgrounds/difficulty2_image9.png","trial_type":"image-button-response","trial_index":12,"time_elapsed":44183,"internal_node_id":"0.0-2.0-0.10"},{"rt":2055,"stimulus":"images/Broccoli/With_Backgrounds/difficulty3_image3.png","response":1,"category":"Broccoli","background_difficulty":"3","image_path":"images/Broccoli/With_Backgrounds/difficulty3_image3.png","trial_type":"image-button-response","trial_index":13,"time_elapsed":46255,"internal_node_id":"0.0-2.0-0.11"},{"rt":2346,"stimulus":"images/Dog/With_Backgrounds/difficulty6_image7.png","response":4,"category":"Dog","background_difficulty":"6","image_path":"images/Dog/With_Backgrounds/difficulty6_image7.png","trial_type":"image-button-response","trial_index":14,"time_elapsed":48615,"internal_node_id":"0.0-2.0-0.12"},{"rt":1587,"stimulus":"images/Cat/With_Backgrounds/difficulty0_image4.png","response":3,"category":"Cat","background_difficulty":"0","image_path":"images/Cat/With_Backgrounds/difficulty0_image4.png","trial_type":"image-button-response","trial_index":15,"time_elapsed":50216,"internal_node_id":"0.0-2.0-0.13"},{"rt":3790,"stimulus":"images/Other/With_Backgrounds/difficulty8_image2.png","response":7,"category":"Other","background_difficulty":"8","image_path":"images/Other/With_Backgrounds/difficulty8_image2.png","trial_type":"image-button-response","trial_index":16,"time_elapsed":54026,"internal_node_id":"0.0-2.0-0.14"},{"rt":1633,"stimulus":"images/Cat/With_Backgrounds/difficulty4_image5.png","response":3,"category":"Cat","background_difficulty":"4","image_path":"images/Cat/With_Backgrounds/difficulty4_image5.png","trial_type":"image-button-response","trial_index":17,"time_elapsed":55674,"internal_node_id":"0.0-2.0-0.15"},{"rt":1975,"stimulus":"images/Dog/With_Backgrounds/difficulty1_image4.png","response":4,"category":"Dog","background_difficulty":"1","image_path":"images/Dog/With_Backgrounds/difficulty1_image4.png","trial_type":"image-button-response","trial_index":18,"time_elapsed":57664,"internal_node_id":"0.0-2.0-0.16"},{"rt":1597,"stimulus":"images/Tree/With_Backgrounds/difficulty6_image3.png","response":6,"category":"Tree","background_difficulty":"6","image_path":"images/Tree/With_Backgrounds/difficulty6_image3.png","trial_type":"image-button-response","trial_index":19,"time_elapsed":59276,"internal_node_id":"0.0-2.0-0.17"},{"rt":1976,"stimulus":"images/Car/With_Backgrounds/difficulty3_image8.png","response":2,"category":"Car","background_difficulty":"3","image_path":"images/Car/With_Backgrounds/difficulty3_image8.png","trial_type":"image-button-response","trial_index":20,"time_elapsed":61269,"internal_node_id":"0.0-2.0-0.18"},{"rt":1860,"stimulus":"images/Tree/With_Backgrounds/difficulty0_image8.png","response":6,"category":"Tree","background_difficulty":"0","image_path":"images/Tree/With_Backgrounds/difficulty0_image8.png","trial_type":"image-button-response","trial_index":21,"time_elapsed":63145,"internal_node_id":"0.0-2.0-0.19"},{"rt":1565,"stimulus":"images/Human/With_Backgrounds/difficulty0_image3.png","response":5,"category":"Human","background_difficulty":"0","image_path":"images/Human/With_Backgrounds/difficulty0_image3.png","trial_type":"image-button-response","trial_index":22,"time_elapsed":64723,"internal_node_id":"0.0-2.0-0.20"},{"rt":1538,"stimulus":"images/Tree/With_Backgrounds/difficulty8_image1.png","response":6,"category":"Tree","background_difficulty":"8","image_path":"images/Tree/With_Backgrounds/difficulty8_image1.png","trial_type":"image-button-response","trial_index":23,"time_elapsed":66281,"internal_node_id":"0.0-2.0-0.21"},{"rt":1826,"stimulus":"images/Other/With_Backgrounds/difficulty6_image0.png","response":7,"category":"Other","background_difficulty":"6","image_path":"images/Other/With_Backgrounds/difficulty6_image0.png","trial_type":"image-button-response","trial_index":24,"time_elapsed":68123,"internal_node_id":"0.0-2.0-0.22"},{"rt":1933,"stimulus":"images/Dog/With_Backgrounds/difficulty3_image3.png","response":4,"category":"Dog","background_difficulty":"3","image_path":"images/Dog/With_Backgrounds/difficulty3_image3.png","trial_type":"image-button-response","trial_index":25,"time_elapsed":70073,"internal_node_id":"0.0-2.0-0.23"},{"rt":1287,"stimulus":"images/Dog/With_Backgrounds/difficulty2_image6.png","response":4,"category":"Dog","background_difficulty":"2","image_path":"images/Dog/With_Backgrounds/difficulty2_image6.png","trial_type":"image-button-response","trial_index":26,"time_elapsed":71373,"internal_node_id":"0.0-2.0-0.24"},{"rt":1293,"stimulus":"images/Dog/With_Backgrounds/difficulty4_image8.png","response":4,"category":"Dog","background_difficulty":"4","image_path":"images/Dog/With_Backgrounds/difficulty4_image8.png","trial_type":"image-button-response","trial_index":27,"time_elapsed":72680,"internal_node_id":"0.0-2.0-0.25"},{"rt":2216,"stimulus":"images/Car/With_Backgrounds/difficulty1_image4.png","response":2,"category":"Car","background_difficulty":"1","image_path":"images/Car/With_Backgrounds/difficulty1_image4.png","trial_type":"image-button-response","trial_index":28,"time_elapsed":74910,"internal_node_id":"0.0-2.0-0.26"},{"rt":1597,"stimulus":"images/Boat/With_Backgrounds/difficulty7_image3.png","response":0,"category":"Boat","background_difficulty":"7","image_path":"images/Boat/With_Backgrounds/difficulty7_image3.png","trial_type":"image-button-response","trial_index":29,"time_elapsed":76521,"internal_node_id":"0.0-2.0-0.27"},{"rt":2829,"stimulus":"images/Boat/With_Backgrounds/difficulty2_image6.png","response":0,"category":"Boat","background_difficulty":"2","image_path":"images/Boat/With_Backgrounds/difficulty2_image6.png","trial_type":"image-button-response","trial_index":30,"time_elapsed":79361,"internal_node_id":"0.0-2.0-0.28"},{"rt":1509,"stimulus":"images/Cat/With_Backgrounds/difficulty7_image2.png","response":3,"category":"Cat","background_difficulty":"7","image_path":"images/Cat/With_Backgrounds/difficulty7_image2.png","trial_type":"image-button-response","trial_index":31,"time_elapsed":80887,"internal_node_id":"0.0-2.0-0.29"},{"rt":1923,"stimulus":"images/Broccoli/With_Backgrounds/difficulty7_image2.png","response":1,"category":"Broccoli","background_difficulty":"7","image_path":"images/Broccoli/With_Backgrounds/difficulty7_image2.png","trial_type":"image-button-response","trial_index":32,"time_elapsed":82830,"internal_node_id":"0.0-2.0-0.30"},{"rt":1662,"stimulus":"images/Boat/With_Backgrounds/difficulty3_image5.png","response":0,"category":"Boat","background_difficulty":"3","image_path":"images/Boat/With_Backgrounds/difficulty3_image5.png","trial_type":"image-button-response","trial_index":33,"time_elapsed":84507,"internal_node_id":"0.0-2.0-0.31"},{"rt":1635,"stimulus":"images/Other/With_Backgrounds/difficulty5_image7.png","response":7,"category":"Other","background_difficulty":"5","image_path":"images/Other/With_Backgrounds/difficulty5_image7.png","trial_type":"image-button-response","trial_index":34,"time_elapsed":86156,"internal_node_id":"0.0-2.0-0.32"},{"rt":2248,"stimulus":"images/Broccoli/With_Backgrounds/difficulty6_image8.png","response":1,"category":"Broccoli","background_difficulty":"6","image_path":"images/Broccoli/With_Backgrounds/difficulty6_image8.png","trial_type":"image-button-response","trial_index":35,"time_elapsed":88421,"internal_node_id":"0.0-2.0-0.33"},{"rt":1586,"stimulus":"images/Other/With_Backgrounds/difficulty4_image4.png","response":7,"category":"Other","background_difficulty":"4","image_path":"images/Other/With_Backgrounds/difficulty4_image4.png","trial_type":"image-button-response","trial_index":36,"time_elapsed":90022,"internal_node_id":"0.0-2.0-0.34"},{"rt":1646,"stimulus":"images/Car/With_Backgrounds/difficulty5_image1.png","response":3,"category":"Car","background_difficulty":"5","image_path":"images/Car/With_Backgrounds/difficulty5_image1.png","trial_type":"image-button-response","trial_index":37,"time_elapsed":91683,"internal_node_id":"0.0-2.0-0.35"},{"rt":5724,"stimulus":"images/Tree/With_Backgrounds/difficulty2_image6.png","response":6,"category":"Tree","background_difficulty":"2","image_path":"images/Tree/With_Backgrounds/difficulty2_image6.png","trial_type":"image-button-response","trial_index":38,"time_elapsed":97421,"internal_node_id":"0.0-2.0-0.36"},{"rt":2229,"stimulus":"images/Car/With_Backgrounds/difficulty2_image0.png","response":2,"category":"Car","background_difficulty":"2","image_path":"images/Car/With_Backgrounds/difficulty2_image0.png","trial_type":"image-button-response","trial_index":39,"time_elapsed":99663,"internal_node_id":"0.0-2.0-0.37"},{"rt":1576,"stimulus":"images/Cat/With_Backgrounds/difficulty8_image3.png","response":3,"category":"Cat","background_difficulty":"8","image_path":"images/Cat/With_Backgrounds/difficulty8_image3.png","trial_type":"image-button-response","trial_index":40,"time_elapsed":101256,"internal_node_id":"0.0-2.0-0.38"},{"rt":1458,"stimulus":"images/Human/With_Backgrounds/difficulty7_image9.png","response":5,"category":"Human","background_difficulty":"7","image_path":"images/Human/With_Backgrounds/difficulty7_image9.png","trial_type":"image-button-response","trial_index":41,"time_elapsed":102730,"internal_node_id":"0.0-2.0-0.39"},{"rt":1545,"stimulus":"images/Other/With_Backgrounds/difficulty3_image9.png","response":7,"category":"Other","background_difficulty":"3","image_path":"images/Other/With_Backgrounds/difficulty3_image9.png","trial_type":"image-button-response","trial_index":42,"time_elapsed":104287,"internal_node_id":"0.0-2.0-0.40"},{"rt":1287,"stimulus":"images/Other/With_Backgrounds/difficulty2_image8.png","response":7,"category":"Other","background_difficulty":"2","image_path":"images/Other/With_Backgrounds/difficulty2_image8.png","trial_type":"image-button-response","trial_index":43,"time_elapsed":105588,"internal_node_id":"0.0-2.0-0.41"},{"rt":2009,"stimulus":"images/Car/With_Backgrounds/difficulty0_image7.png","response":2,"category":"Car","background_difficulty":"0","image_path":"images/Car/With_Backgrounds/difficulty0_image7.png","trial_type":"image-button-response","trial_index":44,"time_elapsed":107612,"internal_node_id":"0.0-2.0-0.42"},{"rt":1373,"stimulus":"images/Tree/With_Backgrounds/difficulty7_image0.png","response":6,"category":"Tree","background_difficulty":"7","image_path":"images/Tree/With_Backgrounds/difficulty7_image0.png","trial_type":"image-button-response","trial_index":45,"time_elapsed":109002,"internal_node_id":"0.0-2.0-0.43"},{"rt":1473,"stimulus":"images/Human/With_Backgrounds/difficulty1_image2.png","response":5,"category":"Human","background_difficulty":"1","image_path":"images/Human/With_Backgrounds/difficulty1_image2.png","trial_type":"image-button-response","trial_index":46,"time_elapsed":110491,"internal_node_id":"0.0-2.0-0.44"},{"rt":1833,"stimulus":"images/Dog/With_Backgrounds/difficulty7_image1.png","response":4,"category":"Dog","background_difficulty":"7","image_path":"images/Dog/With_Backgrounds/difficulty7_image1.png","trial_type":"image-button-response","trial_index":47,"time_elapsed":112345,"internal_node_id":"0.0-2.0-0.45"},{"rt":1664,"stimulus":"images/Boat/With_Backgrounds/difficulty4_image4.png","response":0,"category":"Boat","background_difficulty":"4","image_path":"images/Boat/With_Backgrounds/difficulty4_image4.png","trial_type":"image-button-response","trial_index":48,"time_elapsed":114020,"internal_node_id":"0.0-2.0-0.46"},{"rt":1336,"stimulus":"images/Other/With_Backgrounds/difficulty0_image3.png","response":7,"category":"Other","background_difficulty":"0","image_path":"images/Other/With_Backgrounds/difficulty0_image3.png","trial_type":"image-button-response","trial_index":49,"time_elapsed":115371,"internal_node_id":"0.0-2.0-0.47"},{"rt":1903,"stimulus":"images/Broccoli/With_Backgrounds/difficulty4_image9.png","response":1,"category":"Broccoli","background_difficulty":"4","image_path":"images/Broccoli/With_Backgrounds/difficulty4_image9.png","trial_type":"image-button-response","trial_index":50,"time_elapsed":117286,"internal_node_id":"0.0-2.0-0.48"},{"rt":1573,"stimulus":"images/Cat/With_Backgrounds/difficulty1_image1.png","response":3,"category":"Cat","background_difficulty":"1","image_path":"images/Cat/With_Backgrounds/difficulty1_image1.png","trial_type":"image-button-response","trial_index":51,"time_elapsed":118876,"internal_node_id":"0.0-2.0-0.49"},{"rt":1295,"stimulus":"images/Human/With_Backgrounds/difficulty3_image5.png","response":5,"category":"Human","background_difficulty":"3","image_path":"images/Human/With_Backgrounds/difficulty3_image5.png","trial_type":"image-button-response","trial_index":52,"time_elapsed":120189,"internal_node_id":"0.0-2.0-0.50"},{"rt":1411,"stimulus":"images/Dog/With_Backgrounds/difficulty8_image5.png","response":4,"category":"Dog","background_difficulty":"8","image_path":"images/Dog/With_Backgrounds/difficulty8_image5.png","trial_type":"image-button-response","trial_index":53,"time_elapsed":121619,"internal_node_id":"0.0-2.0-0.51"},{"rt":1445,"stimulus":"images/Human/With_Backgrounds/difficulty8_image1.png","response":5,"category":"Human","background_difficulty":"8","image_path":"images/Human/With_Backgrounds/difficulty8_image1.png","trial_type":"image-button-response","trial_index":54,"time_elapsed":123079,"internal_node_id":"0.0-2.0-0.52"},{"rt":1699,"stimulus":"images/Broccoli/With_Backgrounds/difficulty8_image4.png","response":1,"category":"Broccoli","background_difficulty":"8","image_path":"images/Broccoli/With_Backgrounds/difficulty8_image4.png","trial_type":"image-button-response","trial_index":55,"time_elapsed":124788,"internal_node_id":"0.0-2.0-0.53"},{"rt":1368,"stimulus":"images/Other/With_Backgrounds/difficulty1_image6.png","response":7,"category":"Other","background_difficulty":"1","image_path":"images/Other/With_Backgrounds/difficulty1_image6.png","trial_type":"image-button-response","trial_index":56,"time_elapsed":126173,"internal_node_id":"0.0-2.0-0.54"},{"rt":1618,"stimulus":"images/Broccoli/With_Backgrounds/difficulty5_image0.png","response":1,"category":"Broccoli","background_difficulty":"5","image_path":"images/Broccoli/With_Backgrounds/difficulty5_image0.png","trial_type":"image-button-response","trial_index":57,"time_elapsed":127804,"internal_node_id":"0.0-2.0-0.55"},{"rt":1300,"stimulus":"images/Car/With_Backgrounds/difficulty7_image6.png","response":0,"category":"Car","background_difficulty":"7","image_path":"images/Car/With_Backgrounds/difficulty7_image6.png","trial_type":"image-button-response","trial_index":58,"time_elapsed":129120,"internal_node_id":"0.0-2.0-0.56"},{"rt":2032,"stimulus":"images/Cat/With_Backgrounds/difficulty3_image0.png","response":3,"category":"Cat","background_difficulty":"3","image_path":"images/Cat/With_Backgrounds/difficulty3_image0.png","trial_type":"image-button-response","trial_index":59,"time_elapsed":131168,"internal_node_id":"0.0-2.0-0.57"},{"rt":1375,"stimulus":"images/Human/With_Backgrounds/difficulty4_image0.png","response":5,"category":"Human","background_difficulty":"4","image_path":"images/Human/With_Backgrounds/difficulty4_image0.png","trial_type":"image-button-response","trial_index":60,"time_elapsed":132561,"internal_node_id":"0.0-2.0-0.58"},{"rt":1841,"stimulus":"images/Broccoli/With_Backgrounds/difficulty2_image5.png","response":1,"category":"Broccoli","background_difficulty":"2","image_path":"images/Broccoli/With_Backgrounds/difficulty2_image5.png","trial_type":"image-button-response","trial_index":61,"time_elapsed":134419,"internal_node_id":"0.0-2.0-0.59"},{"rt":2321,"stimulus":"images/Car/With_Backgrounds/difficulty8_image2.png","response":2,"category":"Car","background_difficulty":"8","image_path":"images/Car/With_Backgrounds/difficulty8_image2.png","trial_type":"image-button-response","trial_index":62,"time_elapsed":136758,"internal_node_id":"0.0-2.0-0.60"},{"rt":1267,"stimulus":"images/Human/With_Backgrounds/difficulty5_image4.png","response":5,"category":"Human","background_difficulty":"5","image_path":"images/Human/With_Backgrounds/difficulty5_image4.png","trial_type":"image-button-response","trial_index":63,"time_elapsed":138042,"internal_node_id":"0.0-2.0-0.61"},{"rt":3563,"stimulus":"images/Car/With_Backgrounds/difficulty4_image5.png","response":2,"category":"Car","background_difficulty":"4","image_path":"images/Car/With_Backgrounds/difficulty4_image5.png","trial_type":"image-button-response","trial_index":64,"time_elapsed":141618,"internal_node_id":"0.0-2.0-0.62"},{"rt":1852,"stimulus":"images/Tree/With_Backgrounds/difficulty1_image2.png","response":1,"category":"Tree","background_difficulty":"1","image_path":"images/Tree/With_Backgrounds/difficulty1_image2.png","trial_type":"image-button-response","trial_index":65,"time_elapsed":143486,"internal_node_id":"0.0-2.0-0.63"},{"rt":2385,"stimulus":"images/Dog/With_Backgrounds/difficulty0_image2.png","response":4,"category":"Dog","background_difficulty":"0","image_path":"images/Dog/With_Backgrounds/difficulty0_image2.png","trial_type":"image-button-response","trial_index":66,"time_elapsed":145886,"internal_node_id":"0.0-2.0-0.64"},{"rt":1243,"stimulus":"images/Human/With_Backgrounds/difficulty2_image7.png","response":5,"category":"Human","background_difficulty":"2","image_path":"images/Human/With_Backgrounds/difficulty2_image7.png","trial_type":"image-button-response","trial_index":67,"time_elapsed":147161,"internal_node_id":"0.0-2.0-0.65"},{"rt":1863,"stimulus":"images/Boat/With_Backgrounds/difficulty5_image1.png","response":0,"category":"Boat","background_difficulty":"5","image_path":"images/Boat/With_Backgrounds/difficulty5_image1.png","trial_type":"image-button-response","trial_index":68,"time_elapsed":149035,"internal_node_id":"0.0-2.0-0.66"},{"rt":1452,"stimulus":"images/Broccoli/With_Backgrounds/difficulty1_image7.png","response":1,"category":"Broccoli","background_difficulty":"1","image_path":"images/Broccoli/With_Backgrounds/difficulty1_image7.png","trial_type":"image-button-response","trial_index":69,"time_elapsed":150501,"internal_node_id":"0.0-2.0-0.67"},{"rt":1257,"stimulus":"images/Other/With_Backgrounds/difficulty7_image5.png","response":7,"category":"Other","background_difficulty":"7","image_path":"images/Other/With_Backgrounds/difficulty7_image5.png","trial_type":"image-button-response","trial_index":70,"time_elapsed":151780,"internal_node_id":"0.0-2.0-0.68"},{"rt":2878,"stimulus":"images/Boat/With_Backgrounds/difficulty8_image7.png","response":7,"category":"Boat","background_difficulty":"8","image_path":"images/Boat/With_Backgrounds/difficulty8_image7.png","trial_type":"image-button-response","trial_index":71,"time_elapsed":154681,"internal_node_id":"0.0-2.0-0.69"},{"rt":1669,"stimulus":"images/Boat/With_Backgrounds/difficulty6_image9.png","response":0,"category":"Boat","background_difficulty":"6","image_path":"images/Boat/With_Backgrounds/difficulty6_image9.png","trial_type":"image-button-response","trial_index":72,"time_elapsed":156387,"internal_node_id":"0.0-2.0-0.70"},{"rt":1287,"stimulus":"images/Boat/With_Backgrounds/difficulty1_image2.png","response":0,"category":"Boat","background_difficulty":"1","image_path":"images/Boat/With_Backgrounds/difficulty1_image2.png","trial_type":"image-button-response","trial_index":73,"time_elapsed":157691,"internal_node_id":"0.0-2.0-0.71"},{"rt":3119,"stimulus":["<h2>Press the button below to end experiment.</h2><p>Thank you for participating!</p>"],"response":0,"trial_type":"html-button-response","trial_index":74,"time_elapsed":160832,"internal_node_id":"0.0-3.0"}]