[{"success":true,"timeout":false,"failed_images":[],"failed_audio":[],"failed_video":[],"trial_type":"preload","trial_index":0,"time_elapsed":760,"internal_node_id":"0.0-0.0"},{"rt":8791,"stimulus":["<h2>Noisy background image classification</h2><p>In this experiment you will briefly see images on top of colored squares of various sizes.</p><p>Your task is to report what each image is, selecting \"None of the Above\" if none of the given options are correct.</p> <p>The possible options are <strong>Boat</strong>, <strong>Broccoli</strong>, <strong>Car</strong>, <strong>Cat</strong>, <strong>Dog</strong>, <strong>Human</strong>, <strong>Tree</strong>, and <strong>None of the Above</strong>"],"response":0,"trial_type":"html-button-response","trial_index":1,"time_elapsed":9553,"internal_node_id":"0.0-1.0"},{"rt":2054,"stimulus":"images/Car/With_Backgrounds/difficulty8_image8.png","response":2,"category":"Car","background_difficulty":"8","image_path":"images/Car/With_Backgrounds/difficulty8_image8.png","trial_type":"image-button-response","trial_index":2,"time_elapsed":11612,"internal_node_id":"0.0-2.0-0.0"},{"rt":1315,"stimulus":"images/Broccoli/With_Backgrounds/difficulty1_image1.png","response":1,"category":"Broccoli","background_difficulty":"1","image_path":"images/Broccoli/With_Backgrounds/difficulty1_image1.png","trial_type":"image-button-response","trial_index":3,"time_elapsed":12931,"internal_node_id":"0.0-2.0-0.1"},{"rt":2231,"stimulus":"images/Boat/With_Backgrounds/difficulty3_image6.png","response":0,"category":"Boat","background_difficulty":"3","image_path":"images/Boat/With_Backgrounds/difficulty3_image6.png","trial_type":"image-button-response","trial_index":4,"time_elapsed":15164,"internal_node_id":"0.0-2.0-0.2"},{"rt":1295,"stimulus":"images/Cat/With_Backgrounds/difficulty4_image6.png","response":3,"category":"Cat","background_difficulty":"4","image_path":"images/Cat/With_Backgrounds/difficulty4_image6.png","trial_type":"image-button-response","trial_index":5,"time_elapsed":16461,"internal_node_id":"0.0-2.0-0.3"},{"rt":990,"stimulus":"images/Cat/With_Backgrounds/difficulty7_image8.png","response":3,"category":"Cat","background_difficulty":"7","image_path":"images/Cat/With_Backgrounds/difficulty7_image8.png","trial_type":"image-button-response","trial_index":6,"time_elapsed":17454,"internal_node_id":"0.0-2.0-0.4"},{"rt":1257,"stimulus":"images/Human/With_Backgrounds/difficulty2_image9.png","response":5,"category":"Human","background_difficulty":"2","image_path":"images/Human/With_Backgrounds/difficulty2_image9.png","trial_type":"image-button-response","trial_index":7,"time_elapsed":18714,"internal_node_id":"0.0-2.0-0.5"},{"rt":941,"stimulus":"images/Human/With_Backgrounds/difficulty0_image0.png","response":5,"category":"Human","background_difficulty":"0","image_path":"images/Human/With_Backgrounds/difficulty0_image0.png","trial_type":"image-button-response","trial_index":8,"time_elapsed":19657,"internal_node_id":"0.0-2.0-0.6"},{"rt":1025,"stimulus":"images/Human/With_Backgrounds/difficulty8_image4.png","response":5,"category":"Human","background_difficulty":"8","image_path":"images/Human/With_Backgrounds/difficulty8_image4.png","trial_type":"image-button-response","trial_index":9,"time_elapsed":20685,"internal_node_id":"0.0-2.0-0.7"},{"rt":1152,"stimulus":"images/Broccoli/With_Backgrounds/difficulty3_image7.png","response":1,"category":"Broccoli","background_difficulty":"3","image_path":"images/Broccoli/With_Backgrounds/difficulty3_image7.png","trial_type":"image-button-response","trial_index":10,"time_elapsed":21840,"internal_node_id":"0.0-2.0-0.8"},{"rt":1680,"stimulus":"images/Car/With_Backgrounds/difficulty5_image0.png","response":2,"category":"Car","background_difficulty":"5","image_path":"images/Car/With_Backgrounds/difficulty5_image0.png","trial_type":"image-button-response","trial_index":11,"time_elapsed":23521,"internal_node_id":"0.0-2.0-0.9"},{"rt":1205,"stimulus":"images/Broccoli/With_Backgrounds/difficulty6_image5.png","response":1,"category":"Broccoli","background_difficulty":"6","image_path":"images/Broccoli/With_Backgrounds/difficulty6_image5.png","trial_type":"image-button-response","trial_index":12,"time_elapsed":24729,"internal_node_id":"0.0-2.0-0.10"},{"rt":1206,"stimulus":"images/Cat/With_Backgrounds/difficulty6_image9.png","response":3,"category":"Cat","background_difficulty":"6","image_path":"images/Cat/With_Backgrounds/difficulty6_image9.png","trial_type":"image-button-response","trial_index":13,"time_elapsed":25937,"internal_node_id":"0.0-2.0-0.11"},{"rt":1034,"stimulus":"images/Dog/With_Backgrounds/difficulty2_image0.png","response":4,"category":"Dog","background_difficulty":"2","image_path":"images/Dog/With_Backgrounds/difficulty2_image0.png","trial_type":"image-button-response","trial_index":14,"time_elapsed":26973,"internal_node_id":"0.0-2.0-0.12"},{"rt":1131,"stimulus":"images/Car/With_Backgrounds/difficulty4_image4.png","response":2,"category":"Car","background_difficulty":"4","image_path":"images/Car/With_Backgrounds/difficulty4_image4.png","trial_type":"image-button-response","trial_index":15,"time_elapsed":28107,"internal_node_id":"0.0-2.0-0.13"},{"rt":1004,"stimulus":"images/Dog/With_Backgrounds/difficulty3_image1.png","response":4,"category":"Dog","background_difficulty":"3","image_path":"images/Dog/With_Backgrounds/difficulty3_image1.png","trial_type":"image-button-response","trial_index":16,"time_elapsed":29113,"internal_node_id":"0.0-2.0-0.14"},{"rt":1167,"stimulus":"images/Boat/With_Backgrounds/difficulty7_image2.png","response":0,"category":"Boat","background_difficulty":"7","image_path":"images/Boat/With_Backgrounds/difficulty7_image2.png","trial_type":"image-button-response","trial_index":17,"time_elapsed":30283,"internal_node_id":"0.0-2.0-0.15"},{"rt":1215,"stimulus":"images/Cat/With_Backgrounds/difficulty5_image2.png","response":3,"category":"Cat","background_difficulty":"5","image_path":"images/Cat/With_Backgrounds/difficulty5_image2.png","trial_type":"image-button-response","trial_index":18,"time_elapsed":31501,"internal_node_id":"0.0-2.0-0.16"},{"rt":1041,"stimulus":"images/Human/With_Backgrounds/difficulty3_image7.png","response":5,"category":"Human","background_difficulty":"3","image_path":"images/Human/With_Backgrounds/difficulty3_image7.png","trial_type":"image-button-response","trial_index":19,"time_elapsed":32545,"internal_node_id":"0.0-2.0-0.17"},{"rt":1456,"stimulus":"images/Cat/With_Backgrounds/difficulty1_image0.png","response":3,"category":"Cat","background_difficulty":"1","image_path":"images/Cat/With_Backgrounds/difficulty1_image0.png","trial_type":"image-button-response","trial_index":20,"time_elapsed":34004,"internal_node_id":"0.0-2.0-0.18"},{"rt":2082,"stimulus":"images/Tree/With_Backgrounds/difficulty6_image5.png","response":6,"category":"Tree","background_difficulty":"6","image_path":"images/Tree/With_Backgrounds/difficulty6_image5.png","trial_type":"image-button-response","trial_index":21,"time_elapsed":36088,"internal_node_id":"0.0-2.0-0.19"},{"rt":1352,"stimulus":"images/Dog/With_Backgrounds/difficulty7_image7.png","response":4,"category":"Dog","background_difficulty":"7","image_path":"images/Dog/With_Backgrounds/difficulty7_image7.png","trial_type":"image-button-response","trial_index":22,"time_elapsed":37442,"internal_node_id":"0.0-2.0-0.20"},{"rt":989,"stimulus":"images/Dog/With_Backgrounds/difficulty0_image4.png","response":4,"category":"Dog","background_difficulty":"0","image_path":"images/Dog/With_Backgrounds/difficulty0_image4.png","trial_type":"image-button-response","trial_index":23,"time_elapsed":38434,"internal_node_id":"0.0-2.0-0.21"},{"rt":2315,"stimulus":"images/Other/With_Backgrounds/difficulty8_image0.png","response":7,"category":"Other","background_difficulty":"8","image_path":"images/Other/With_Backgrounds/difficulty8_image0.png","trial_type":"image-button-response","trial_index":24,"time_elapsed":40752,"internal_node_id":"0.0-2.0-0.22"},{"rt":1366,"stimulus":"images/Car/With_Backgrounds/difficulty1_image6.png","response":2,"category":"Car","background_difficulty":"1","image_path":"images/Car/With_Backgrounds/difficulty1_image6.png","trial_type":"image-button-response","trial_index":25,"time_elapsed":42120,"internal_node_id":"0.0-2.0-0.23"},{"rt":1303,"stimulus":"images/Tree/With_Backgrounds/difficulty5_image7.png","response":6,"category":"Tree","background_difficulty":"5","image_path":"images/Tree/With_Backgrounds/difficulty5_image7.png","trial_type":"image-button-response","trial_index":26,"time_elapsed":43425,"internal_node_id":"0.0-2.0-0.24"},{"rt":1131,"stimulus":"images/Dog/With_Backgrounds/difficulty6_image9.png","response":4,"category":"Dog","background_difficulty":"6","image_path":"images/Dog/With_Backgrounds/difficulty6_image9.png","trial_type":"image-button-response","trial_index":27,"time_elapsed":44559,"internal_node_id":"0.0-2.0-0.25"},{"rt":1721,"stimulus":"images/Broccoli/With_Backgrounds/difficulty5_image8.png","response":1,"category":"Broccoli","background_difficulty":"5","image_path":"images/Broccoli/With_Backgrounds/difficulty5_image8.png","trial_type":"image-button-response","trial_index":28,"time_elapsed":46283,"internal_node_id":"0.0-2.0-0.26"},{"rt":1144,"stimulus":"images/Car/With_Backgrounds/difficulty6_image2.png","response":2,"category":"Car","background_difficulty":"6","image_path":"images/Car/With_Backgrounds/difficulty6_image2.png","trial_type":"image-button-response","trial_index":29,"time_elapsed":47429,"internal_node_id":"0.0-2.0-0.27"},{"rt":1323,"stimulus":"images/Tree/With_Backgrounds/difficulty7_image2.png","response":6,"category":"Tree","background_difficulty":"7","image_path":"images/Tree/With_Backgrounds/difficulty7_image2.png","trial_type":"image-button-response","trial_index":30,"time_elapsed":48755,"internal_node_id":"0.0-2.0-0.28"},{"rt":736,"stimulus":"images/Tree/With_Backgrounds/difficulty1_image6.png","response":6,"category":"Tree","background_difficulty":"1","image_path":"images/Tree/With_Backgrounds/difficulty1_image6.png","trial_type":"image-button-response","trial_index":31,"time_elapsed":49493,"internal_node_id":"0.0-2.0-0.29"},{"rt":1655,"stimulus":"images/Broccoli/With_Backgrounds/difficulty7_image2.png","response":1,"category":"Broccoli","background_difficulty":"7","image_path":"images/Broccoli/With_Backgrounds/difficulty7_image2.png","trial_type":"image-button-response","trial_index":32,"time_elapsed":51150,"internal_node_id":"0.0-2.0-0.30"},{"rt":1474,"stimulus":"images/Cat/With_Backgrounds/difficulty3_image4.png","response":3,"category":"Cat","background_difficulty":"3","image_path":"images/Cat/With_Backgrounds/difficulty3_image4.png","trial_type":"image-button-response","trial_index":33,"time_elapsed":52625,"internal_node_id":"0.0-2.0-0.31"},{"rt":1587,"stimulus":"images/Other/With_Backgrounds/difficulty0_image4.png","response":7,"category":"Other","background_difficulty":"0","image_path":"images/Other/With_Backgrounds/difficulty0_image4.png","trial_type":"image-button-response","trial_index":34,"time_elapsed":54214,"internal_node_id":"0.0-2.0-0.32"},{"rt":1251,"stimulus":"images/Car/With_Backgrounds/difficulty2_image1.png","response":2,"category":"Car","background_difficulty":"2","image_path":"images/Car/With_Backgrounds/difficulty2_image1.png","trial_type":"image-button-response","trial_index":35,"time_elapsed":55468,"internal_node_id":"0.0-2.0-0.33"},{"rt":926,"stimulus":"images/Cat/With_Backgrounds/difficulty2_image7.png","response":3,"category":"Cat","background_difficulty":"2","image_path":"images/Cat/With_Backgrounds/difficulty2_image7.png","trial_type":"image-button-response","trial_index":36,"time_elapsed":56396,"internal_node_id":"0.0-2.0-0.34"},{"rt":883,"stimulus":"images/Dog/With_Backgrounds/difficulty4_image6.png","response":4,"category":"Dog","background_difficulty":"4","image_path":"images/Dog/With_Backgrounds/difficulty4_image6.png","trial_type":"image-button-response","trial_index":37,"time_elapsed":57282,"internal_node_id":"0.0-2.0-0.35"},{"rt":1154,"stimulus":"images/Car/With_Backgrounds/difficulty3_image5.png","response":2,"category":"Car","background_difficulty":"3","image_path":"images/Car/With_Backgrounds/difficulty3_image5.png","trial_type":"image-button-response","trial_index":38,"time_elapsed":58439,"internal_node_id":"0.0-2.0-0.36"},{"rt":546,"stimulus":"images/Boat/With_Backgrounds/difficulty2_image4.png","response":2,"category":"Boat","background_difficulty":"2","image_path":"images/Boat/With_Backgrounds/difficulty2_image4.png","trial_type":"image-button-response","trial_index":39,"time_elapsed":58987,"internal_node_id":"0.0-2.0-0.37"},{"rt":3966,"stimulus":"images/Tree/With_Backgrounds/difficulty3_image0.png","response":6,"category":"Tree","background_difficulty":"3","image_path":"images/Tree/With_Backgrounds/difficulty3_image0.png","trial_type":"image-button-response","trial_index":40,"time_elapsed":62952,"internal_node_id":"0.0-2.0-0.38"},{"rt":972,"stimulus":"images/Human/With_Backgrounds/difficulty6_image8.png","response":5,"category":"Human","background_difficulty":"6","image_path":"images/Human/With_Backgrounds/difficulty6_image8.png","trial_type":"image-button-response","trial_index":41,"time_elapsed":63926,"internal_node_id":"0.0-2.0-0.39"},{"rt":1366,"stimulus":"images/Boat/With_Backgrounds/difficulty8_image3.png","response":0,"category":"Boat","background_difficulty":"8","image_path":"images/Boat/With_Backgrounds/difficulty8_image3.png","trial_type":"image-button-response","trial_index":42,"time_elapsed":65294,"internal_node_id":"0.0-2.0-0.40"},{"rt":2209,"stimulus":"images/Boat/With_Backgrounds/difficulty0_image7.png","response":0,"category":"Boat","background_difficulty":"0","image_path":"images/Boat/With_Backgrounds/difficulty0_image7.png","trial_type":"image-button-response","trial_index":43,"time_elapsed":67505,"internal_node_id":"0.0-2.0-0.41"},{"rt":1282,"stimulus":"images/Other/With_Backgrounds/difficulty2_image5.png","response":7,"category":"Other","background_difficulty":"2","image_path":"images/Other/With_Backgrounds/difficulty2_image5.png","trial_type":"image-button-response","trial_index":44,"time_elapsed":68789,"internal_node_id":"0.0-2.0-0.42"},{"rt":1328,"stimulus":"images/Boat/With_Backgrounds/difficulty1_image0.png","response":0,"category":"Boat","background_difficulty":"1","image_path":"images/Boat/With_Backgrounds/difficulty1_image0.png","trial_type":"image-button-response","trial_index":45,"time_elapsed":70120,"internal_node_id":"0.0-2.0-0.43"},{"rt":1120,"stimulus":"images/Dog/With_Backgrounds/difficulty5_image2.png","response":4,"category":"Dog","background_difficulty":"5","image_path":"images/Dog/With_Backgrounds/difficulty5_image2.png","trial_type":"image-button-response","trial_index":46,"time_elapsed":71242,"internal_node_id":"0.0-2.0-0.44"},{"rt":1323,"stimulus":"images/Tree/With_Backgrounds/difficulty2_image4.png","response":6,"category":"Tree","background_difficulty":"2","image_path":"images/Tree/With_Backgrounds/difficulty2_image4.png","trial_type":"image-button-response","trial_index":47,"time_elapsed":72567,"internal_node_id":"0.0-2.0-0.45"},{"rt":983,"stimulus":"images/Tree/With_Backgrounds/difficulty4_image3.png","response":6,"category":"Tree","background_difficulty":"4","image_path":"images/Tree/With_Backgrounds/difficulty4_image3.png","trial_type":"image-button-response","trial_index":48,"time_elapsed":73551,"internal_node_id":"0.0-2.0-0.46"},{"rt":1069,"stimulus":"images/Broccoli/With_Backgrounds/difficulty2_image0.png","response":1,"category":"Broccoli","background_difficulty":"2","image_path":"images/Broccoli/With_Backgrounds/difficulty2_image0.png","trial_type":"image-button-response","trial_index":49,"time_elapsed":74622,"internal_node_id":"0.0-2.0-0.47"},{"rt":1167,"stimulus":"images/Cat/With_Backgrounds/difficulty0_image1.png","response":3,"category":"Cat","background_difficulty":"0","image_path":"images/Cat/With_Backgrounds/difficulty0_image1.png","trial_type":"image-button-response","trial_index":50,"time_elapsed":75792,"internal_node_id":"0.0-2.0-0.48"},{"rt":1634,"stimulus":"images/Other/With_Backgrounds/difficulty3_image7.png","response":7,"category":"Other","background_difficulty":"3","image_path":"images/Other/With_Backgrounds/difficulty3_image7.png","trial_type":"image-button-response","trial_index":51,"time_elapsed":77429,"internal_node_id":"0.0-2.0-0.49"},{"rt":2131,"stimulus":"images/Tree/With_Backgrounds/difficulty8_image9.png","response":6,"category":"Tree","background_difficulty":"8","image_path":"images/Tree/With_Backgrounds/difficulty8_image9.png","trial_type":"image-button-response","trial_index":52,"time_elapsed":79561,"internal_node_id":"0.0-2.0-0.50"},{"rt":1204,"stimulus":"images/Other/With_Backgrounds/difficulty4_image6.png","response":7,"category":"Other","background_difficulty":"4","image_path":"images/Other/With_Backgrounds/difficulty4_image6.png","trial_type":"image-button-response","trial_index":53,"time_elapsed":80767,"internal_node_id":"0.0-2.0-0.51"},{"rt":1132,"stimulus":"images/Human/With_Backgrounds/difficulty1_image1.png","response":5,"category":"Human","background_difficulty":"1","image_path":"images/Human/With_Backgrounds/difficulty1_image1.png","trial_type":"image-button-response","trial_index":54,"time_elapsed":81901,"internal_node_id":"0.0-2.0-0.52"},{"rt":890,"stimulus":"images/Human/With_Backgrounds/difficulty4_image6.png","response":5,"category":"Human","background_difficulty":"4","image_path":"images/Human/With_Backgrounds/difficulty4_image6.png","trial_type":"image-button-response","trial_index":55,"time_elapsed":82793,"internal_node_id":"0.0-2.0-0.53"},{"rt":1328,"stimulus":"images/Boat/With_Backgrounds/difficulty6_image5.png","response":0,"category":"Boat","background_difficulty":"6","image_path":"images/Boat/With_Backgrounds/difficulty6_image5.png","trial_type":"image-button-response","trial_index":56,"time_elapsed":84123,"internal_node_id":"0.0-2.0-0.54"},{"rt":1056,"stimulus":"images/Boat/With_Backgrounds/difficulty5_image1.png","response":0,"category":"Boat","background_difficulty":"5","image_path":"images/Boat/With_Backgrounds/difficulty5_image1.png","trial_type":"image-button-response","trial_index":57,"time_elapsed":85181,"internal_node_id":"0.0-2.0-0.55"},{"rt":1012,"stimulus":"images/Human/With_Backgrounds/difficulty7_image3.png","response":5,"category":"Human","background_difficulty":"7","image_path":"images/Human/With_Backgrounds/difficulty7_image3.png","trial_type":"image-button-response","trial_index":58,"time_elapsed":86195,"internal_node_id":"0.0-2.0-0.56"},{"rt":1261,"stimulus":"images/Broccoli/With_Backgrounds/difficulty4_image4.png","response":1,"category":"Broccoli","background_difficulty":"4","image_path":"images/Broccoli/With_Backgrounds/difficulty4_image4.png","trial_type":"image-button-response","trial_index":59,"time_elapsed":87458,"internal_node_id":"0.0-2.0-0.57"},{"rt":1393,"stimulus":"images/Other/With_Backgrounds/difficulty6_image9.png","response":7,"category":"Other","background_difficulty":"6","image_path":"images/Other/With_Backgrounds/difficulty6_image9.png","trial_type":"image-button-response","trial_index":60,"time_elapsed":88853,"internal_node_id":"0.0-2.0-0.58"},{"rt":1166,"stimulus":"images/Broccoli/With_Backgrounds/difficulty0_image6.png","response":1,"category":"Broccoli","background_difficulty":"0","image_path":"images/Broccoli/With_Backgrounds/difficulty0_image6.png","trial_type":"image-button-response","trial_index":61,"time_elapsed":90023,"internal_node_id":"0.0-2.0-0.59"},{"rt":2068,"stimulus":"images/Human/With_Backgrounds/difficulty5_image2.png","response":5,"category":"Human","background_difficulty":"5","image_path":"images/Human/With_Backgrounds/difficulty5_image2.png","trial_type":"image-button-response","trial_index":62,"time_elapsed":92092,"internal_node_id":"0.0-2.0-0.60"},{"rt":1316,"stimulus":"images/Tree/With_Backgrounds/difficulty0_image8.png","response":6,"category":"Tree","background_difficulty":"0","image_path":"images/Tree/With_Backgrounds/difficulty0_image8.png","trial_type":"image-button-response","trial_index":63,"time_elapsed":93411,"internal_node_id":"0.0-2.0-0.61"},{"rt":1153,"stimulus":"images/Dog/With_Backgrounds/difficulty1_image5.png","response":4,"category":"Dog","background_difficulty":"1","image_path":"images/Dog/With_Backgrounds/difficulty1_image5.png","trial_type":"image-button-response","trial_index":64,"time_elapsed":94565,"internal_node_id":"0.0-2.0-0.62"},{"rt":1165,"stimulus":"images/Broccoli/With_Backgrounds/difficulty8_image9.png","response":1,"category":"Broccoli","background_difficulty":"8","image_path":"images/Broccoli/With_Backgrounds/difficulty8_image9.png","trial_type":"image-button-response","trial_index":65,"time_elapsed":95734,"internal_node_id":"0.0-2.0-0.63"},{"rt":1678,"stimulus":"images/Car/With_Backgrounds/difficulty0_image9.png","response":2,"category":"Car","background_difficulty":"0","image_path":"images/Car/With_Backgrounds/difficulty0_image9.png","trial_type":"image-button-response","trial_index":66,"time_elapsed":97414,"internal_node_id":"0.0-2.0-0.64"},{"rt":891,"stimulus":"images/Car/With_Backgrounds/difficulty7_image7.png","response":2,"category":"Car","background_difficulty":"7","image_path":"images/Car/With_Backgrounds/difficulty7_image7.png","trial_type":"image-button-response","trial_index":67,"time_elapsed":98307,"internal_node_id":"0.0-2.0-0.65"},{"rt":1253,"stimulus":"images/Boat/With_Backgrounds/difficulty4_image9.png","response":0,"category":"Boat","background_difficulty":"4","image_path":"images/Boat/With_Backgrounds/difficulty4_image9.png","trial_type":"image-button-response","trial_index":68,"time_elapsed":99562,"internal_node_id":"0.0-2.0-0.66"},{"rt":51,"stimulus":"images/Other/With_Backgrounds/difficulty7_image1.png","response":0,"category":"Other","background_difficulty":"7","image_path":"images/Other/With_Backgrounds/difficulty7_image1.png","trial_type":"image-button-response","trial_index":69,"time_elapsed":99615,"internal_node_id":"0.0-2.0-0.67"},{"rt":2383,"stimulus":"images/Dog/With_Backgrounds/difficulty8_image8.png","response":4,"category":"Dog","background_difficulty":"8","image_path":"images/Dog/With_Backgrounds/difficulty8_image8.png","trial_type":"image-button-response","trial_index":70,"time_elapsed":101999,"internal_node_id":"0.0-2.0-0.68"},{"rt":1266,"stimulus":"images/Other/With_Backgrounds/difficulty5_image8.png","response":7,"category":"Other","background_difficulty":"5","image_path":"images/Other/With_Backgrounds/difficulty5_image8.png","trial_type":"image-button-response","trial_index":71,"time_elapsed":103268,"internal_node_id":"0.0-2.0-0.69"},{"rt":1636,"stimulus":"images/Other/With_Backgrounds/difficulty1_image2.png","response":7,"category":"Other","background_difficulty":"1","image_path":"images/Other/With_Backgrounds/difficulty1_image2.png","trial_type":"image-button-response","trial_index":72,"time_elapsed":104906,"internal_node_id":"0.0-2.0-0.70"},{"rt":1619,"stimulus":"images/Cat/With_Backgrounds/difficulty8_image3.png","response":3,"category":"Cat","background_difficulty":"8","image_path":"images/Cat/With_Backgrounds/difficulty8_image3.png","trial_type":"image-button-response","trial_index":73,"time_elapsed":106528,"internal_node_id":"0.0-2.0-0.71"},{"rt":1175,"stimulus":["<h2>Press the button below to end experiment.</h2><p>Thank you for participating!</p>"],"response":0,"trial_type":"html-button-response","trial_index":74,"time_elapsed":107704,"internal_node_id":"0.0-3.0"}]