[{"success":true,"timeout":false,"failed_images":[],"failed_audio":[],"failed_video":[],"trial_type":"preload","trial_index":0,"time_elapsed":3491,"internal_node_id":"0.0-0.0"},{"rt":8896,"stimulus":["<h2>Noisy background image classification</h2><p>In this experiment you will briefly see images on top of colored squares of various sizes.</p><p>Your task is to report what each image is, selecting \"None of the Above\" if none of the given options are correct.</p> <p>The possible options are <strong>Boat</strong>, <strong>Broccoli</strong>, <strong>Car</strong>, <strong>Cat</strong>, <strong>Dog</strong>, <strong>Human</strong>, <strong>Tree</strong>, and <strong>None of the Above</strong>"],"response":0,"trial_type":"html-button-response","trial_index":1,"time_elapsed":12390,"internal_node_id":"0.0-1.0"},{"rt":2101,"stimulus":"images/Boat/With_Backgrounds/difficulty0_image9.png","response":0,"category":"Boat","background_difficulty":"0","image_path":"images/Boat/With_Backgrounds/difficulty0_image9.png","trial_type":"image-button-response","trial_index":2,"time_elapsed":14497,"internal_node_id":"0.0-2.0-0.0"},{"rt":1921,"stimulus":"images/Cat/With_Backgrounds/difficulty5_image4.png","response":3,"category":"Cat","background_difficulty":"5","image_path":"images/Cat/With_Backgrounds/difficulty5_image4.png","trial_type":"image-button-response","trial_index":3,"time_elapsed":16421,"internal_node_id":"0.0-2.0-0.1"},{"rt":1569,"stimulus":"images/Boat/With_Backgrounds/difficulty1_image6.png","response":0,"category":"Boat","background_difficulty":"1","image_path":"images/Boat/With_Backgrounds/difficulty1_image6.png","trial_type":"image-button-response","trial_index":4,"time_elapsed":17992,"internal_node_id":"0.0-2.0-0.2"},{"rt":2250,"stimulus":"images/Tree/With_Backgrounds/difficulty3_image3.png","response":6,"category":"Tree","background_difficulty":"3","image_path":"images/Tree/With_Backgrounds/difficulty3_image3.png","trial_type":"image-button-response","trial_index":5,"time_elapsed":20244,"internal_node_id":"0.0-2.0-0.3"},{"rt":2775,"stimulus":"images/Other/With_Backgrounds/difficulty0_image3.png","response":7,"category":"Other","background_difficulty":"0","image_path":"images/Other/With_Backgrounds/difficulty0_image3.png","trial_type":"image-button-response","trial_index":6,"time_elapsed":23020,"internal_node_id":"0.0-2.0-0.4"},{"rt":1869,"stimulus":"images/Boat/With_Backgrounds/difficulty8_image3.png","response":0,"category":"Boat","background_difficulty":"8","image_path":"images/Boat/With_Backgrounds/difficulty8_image3.png","trial_type":"image-button-response","trial_index":7,"time_elapsed":24891,"internal_node_id":"0.0-2.0-0.5"},{"rt":1441,"stimulus":"images/Tree/With_Backgrounds/difficulty4_image9.png","response":6,"category":"Tree","background_difficulty":"4","image_path":"images/Tree/With_Backgrounds/difficulty4_image9.png","trial_type":"image-button-response","trial_index":8,"time_elapsed":26333,"internal_node_id":"0.0-2.0-0.6"},{"rt":1282,"stimulus":"images/Human/With_Backgrounds/difficulty2_image4.png","response":5,"category":"Human","background_difficulty":"2","image_path":"images/Human/With_Backgrounds/difficulty2_image4.png","trial_type":"image-button-response","trial_index":9,"time_elapsed":27617,"internal_node_id":"0.0-2.0-0.7"},{"rt":1519,"stimulus":"images/Cat/With_Backgrounds/difficulty0_image6.png","response":3,"category":"Cat","background_difficulty":"0","image_path":"images/Cat/With_Backgrounds/difficulty0_image6.png","trial_type":"image-button-response","trial_index":10,"time_elapsed":29138,"internal_node_id":"0.0-2.0-0.8"},{"rt":1646,"stimulus":"images/Other/With_Backgrounds/difficulty1_image2.png","response":7,"category":"Other","background_difficulty":"1","image_path":"images/Other/With_Backgrounds/difficulty1_image2.png","trial_type":"image-button-response","trial_index":11,"time_elapsed":30786,"internal_node_id":"0.0-2.0-0.9"},{"rt":1864,"stimulus":"images/Broccoli/With_Backgrounds/difficulty2_image2.png","response":1,"category":"Broccoli","background_difficulty":"2","image_path":"images/Broccoli/With_Backgrounds/difficulty2_image2.png","trial_type":"image-button-response","trial_index":12,"time_elapsed":32652,"internal_node_id":"0.0-2.0-0.10"},{"rt":1769,"stimulus":"images/Car/With_Backgrounds/difficulty0_image7.png","response":2,"category":"Car","background_difficulty":"0","image_path":"images/Car/With_Backgrounds/difficulty0_image7.png","trial_type":"image-button-response","trial_index":13,"time_elapsed":34423,"internal_node_id":"0.0-2.0-0.11"},{"rt":1677,"stimulus":"images/Car/With_Backgrounds/difficulty5_image9.png","response":2,"category":"Car","background_difficulty":"5","image_path":"images/Car/With_Backgrounds/difficulty5_image9.png","trial_type":"image-button-response","trial_index":14,"time_elapsed":36102,"internal_node_id":"0.0-2.0-0.12"},{"rt":1301,"stimulus":"images/Human/With_Backgrounds/difficulty8_image9.png","response":5,"category":"Human","background_difficulty":"8","image_path":"images/Human/With_Backgrounds/difficulty8_image9.png","trial_type":"image-button-response","trial_index":15,"time_elapsed":37404,"internal_node_id":"0.0-2.0-0.13"},{"rt":1655,"stimulus":"images/Broccoli/With_Backgrounds/difficulty4_image5.png","response":1,"category":"Broccoli","background_difficulty":"4","image_path":"images/Broccoli/With_Backgrounds/difficulty4_image5.png","trial_type":"image-button-response","trial_index":16,"time_elapsed":39060,"internal_node_id":"0.0-2.0-0.14"},{"rt":1503,"stimulus":"images/Car/With_Backgrounds/difficulty8_image3.png","response":2,"category":"Car","background_difficulty":"8","image_path":"images/Car/With_Backgrounds/difficulty8_image3.png","trial_type":"image-button-response","trial_index":17,"time_elapsed":40564,"internal_node_id":"0.0-2.0-0.15"},{"rt":1264,"stimulus":"images/Broccoli/With_Backgrounds/difficulty6_image1.png","response":1,"category":"Broccoli","background_difficulty":"6","image_path":"images/Broccoli/With_Backgrounds/difficulty6_image1.png","trial_type":"image-button-response","trial_index":18,"time_elapsed":41831,"internal_node_id":"0.0-2.0-0.16"},{"rt":1882,"stimulus":"images/Boat/With_Backgrounds/difficulty4_image1.png","response":0,"category":"Boat","background_difficulty":"4","image_path":"images/Boat/With_Backgrounds/difficulty4_image1.png","trial_type":"image-button-response","trial_index":19,"time_elapsed":43714,"internal_node_id":"0.0-2.0-0.17"},{"rt":1414,"stimulus":"images/Cat/With_Backgrounds/difficulty7_image5.png","response":3,"category":"Cat","background_difficulty":"7","image_path":"images/Cat/With_Backgrounds/difficulty7_image5.png","trial_type":"image-button-response","trial_index":20,"time_elapsed":45130,"internal_node_id":"0.0-2.0-0.18"},{"rt":2026,"stimulus":"images/Broccoli/With_Backgrounds/difficulty7_image8.png","response":1,"category":"Broccoli","background_difficulty":"7","image_path":"images/Broccoli/With_Backgrounds/difficulty7_image8.png","trial_type":"image-button-response","trial_index":21,"time_elapsed":47158,"internal_node_id":"0.0-2.0-0.19"},{"rt":1600,"stimulus":"images/Human/With_Backgrounds/difficulty1_image1.png","response":5,"category":"Human","background_difficulty":"1","image_path":"images/Human/With_Backgrounds/difficulty1_image1.png","trial_type":"image-button-response","trial_index":22,"time_elapsed":48760,"internal_node_id":"0.0-2.0-0.20"},{"rt":1591,"stimulus":"images/Dog/With_Backgrounds/difficulty2_image8.png","response":4,"category":"Dog","background_difficulty":"2","image_path":"images/Dog/With_Backgrounds/difficulty2_image8.png","trial_type":"image-button-response","trial_index":23,"time_elapsed":50353,"internal_node_id":"0.0-2.0-0.21"},{"rt":1738,"stimulus":"images/Car/With_Backgrounds/difficulty7_image5.png","response":2,"category":"Car","background_difficulty":"7","image_path":"images/Car/With_Backgrounds/difficulty7_image5.png","trial_type":"image-button-response","trial_index":24,"time_elapsed":52093,"internal_node_id":"0.0-2.0-0.22"},{"rt":1005,"stimulus":"images/Car/With_Backgrounds/difficulty1_image0.png","response":2,"category":"Car","background_difficulty":"1","image_path":"images/Car/With_Backgrounds/difficulty1_image0.png","trial_type":"image-button-response","trial_index":25,"time_elapsed":53100,"internal_node_id":"0.0-2.0-0.23"},{"rt":1262,"stimulus":"images/Car/With_Backgrounds/difficulty4_image6.png","response":2,"category":"Car","background_difficulty":"4","image_path":"images/Car/With_Backgrounds/difficulty4_image6.png","trial_type":"image-button-response","trial_index":26,"time_elapsed":54363,"internal_node_id":"0.0-2.0-0.24"},{"rt":1640,"stimulus":"images/Human/With_Backgrounds/difficulty6_image7.png","response":5,"category":"Human","background_difficulty":"6","image_path":"images/Human/With_Backgrounds/difficulty6_image7.png","trial_type":"image-button-response","trial_index":27,"time_elapsed":56004,"internal_node_id":"0.0-2.0-0.25"},{"rt":1391,"stimulus":"images/Dog/With_Backgrounds/difficulty4_image9.png","response":4,"category":"Dog","background_difficulty":"4","image_path":"images/Dog/With_Backgrounds/difficulty4_image9.png","trial_type":"image-button-response","trial_index":28,"time_elapsed":57394,"internal_node_id":"0.0-2.0-0.26"},{"rt":1184,"stimulus":"images/Cat/With_Backgrounds/difficulty3_image0.png","response":3,"category":"Cat","background_difficulty":"3","image_path":"images/Cat/With_Backgrounds/difficulty3_image0.png","trial_type":"image-button-response","trial_index":29,"time_elapsed":58581,"internal_node_id":"0.0-2.0-0.27"},{"rt":1182,"stimulus":"images/Cat/With_Backgrounds/difficulty1_image7.png","response":3,"category":"Cat","background_difficulty":"1","image_path":"images/Cat/With_Backgrounds/difficulty1_image7.png","trial_type":"image-button-response","trial_index":30,"time_elapsed":59765,"internal_node_id":"0.0-2.0-0.28"},{"rt":1216,"stimulus":"images/Car/With_Backgrounds/difficulty3_image1.png","response":2,"category":"Car","background_difficulty":"3","image_path":"images/Car/With_Backgrounds/difficulty3_image1.png","trial_type":"image-button-response","trial_index":31,"time_elapsed":60983,"internal_node_id":"0.0-2.0-0.29"},{"rt":1520,"stimulus":"images/Dog/With_Backgrounds/difficulty8_image2.png","response":4,"category":"Dog","background_difficulty":"8","image_path":"images/Dog/With_Backgrounds/difficulty8_image2.png","trial_type":"image-button-response","trial_index":32,"time_elapsed":62505,"internal_node_id":"0.0-2.0-0.30"},{"rt":1112,"stimulus":"images/Dog/With_Backgrounds/difficulty0_image5.png","response":4,"category":"Dog","background_difficulty":"0","image_path":"images/Dog/With_Backgrounds/difficulty0_image5.png","trial_type":"image-button-response","trial_index":33,"time_elapsed":63619,"internal_node_id":"0.0-2.0-0.31"},{"rt":1941,"stimulus":"images/Tree/With_Backgrounds/difficulty6_image5.png","response":6,"category":"Tree","background_difficulty":"6","image_path":"images/Tree/With_Backgrounds/difficulty6_image5.png","trial_type":"image-button-response","trial_index":34,"time_elapsed":65562,"internal_node_id":"0.0-2.0-0.32"},{"rt":1561,"stimulus":"images/Human/With_Backgrounds/difficulty3_image0.png","response":5,"category":"Human","background_difficulty":"3","image_path":"images/Human/With_Backgrounds/difficulty3_image0.png","trial_type":"image-button-response","trial_index":35,"time_elapsed":67125,"internal_node_id":"0.0-2.0-0.33"},{"rt":2027,"stimulus":"images/Other/With_Backgrounds/difficulty6_image4.png","response":7,"category":"Other","background_difficulty":"6","image_path":"images/Other/With_Backgrounds/difficulty6_image4.png","trial_type":"image-button-response","trial_index":36,"time_elapsed":69153,"internal_node_id":"0.0-2.0-0.34"},{"rt":1474,"stimulus":"images/Dog/With_Backgrounds/difficulty3_image7.png","response":4,"category":"Dog","background_difficulty":"3","image_path":"images/Dog/With_Backgrounds/difficulty3_image7.png","trial_type":"image-button-response","trial_index":37,"time_elapsed":70628,"internal_node_id":"0.0-2.0-0.35"},{"rt":2298,"stimulus":"images/Other/With_Backgrounds/difficulty7_image8.png","response":7,"category":"Other","background_difficulty":"7","image_path":"images/Other/With_Backgrounds/difficulty7_image8.png","trial_type":"image-button-response","trial_index":38,"time_elapsed":72929,"internal_node_id":"0.0-2.0-0.36"},{"rt":1736,"stimulus":"images/Other/With_Backgrounds/difficulty5_image6.png","response":7,"category":"Other","background_difficulty":"5","image_path":"images/Other/With_Backgrounds/difficulty5_image6.png","trial_type":"image-button-response","trial_index":39,"time_elapsed":74666,"internal_node_id":"0.0-2.0-0.37"},{"rt":2861,"stimulus":"images/Boat/With_Backgrounds/difficulty5_image7.png","response":0,"category":"Boat","background_difficulty":"5","image_path":"images/Boat/With_Backgrounds/difficulty5_image7.png","trial_type":"image-button-response","trial_index":40,"time_elapsed":77529,"internal_node_id":"0.0-2.0-0.38"},{"rt":1765,"stimulus":"images/Cat/With_Backgrounds/difficulty2_image1.png","response":3,"category":"Cat","background_difficulty":"2","image_path":"images/Cat/With_Backgrounds/difficulty2_image1.png","trial_type":"image-button-response","trial_index":41,"time_elapsed":79295,"internal_node_id":"0.0-2.0-0.39"},{"rt":1325,"stimulus":"images/Dog/With_Backgrounds/difficulty6_image4.png","response":4,"category":"Dog","background_difficulty":"6","image_path":"images/Dog/With_Backgrounds/difficulty6_image4.png","trial_type":"image-button-response","trial_index":42,"time_elapsed":80622,"internal_node_id":"0.0-2.0-0.40"},{"rt":1481,"stimulus":"images/Car/With_Backgrounds/difficulty6_image4.png","response":2,"category":"Car","background_difficulty":"6","image_path":"images/Car/With_Backgrounds/difficulty6_image4.png","trial_type":"image-button-response","trial_index":43,"time_elapsed":82105,"internal_node_id":"0.0-2.0-0.41"},{"rt":1780,"stimulus":"images/Tree/With_Backgrounds/difficulty5_image7.png","response":6,"category":"Tree","background_difficulty":"5","image_path":"images/Tree/With_Backgrounds/difficulty5_image7.png","trial_type":"image-button-response","trial_index":44,"time_elapsed":83887,"internal_node_id":"0.0-2.0-0.42"},{"rt":1043,"stimulus":"images/Tree/With_Backgrounds/difficulty7_image2.png","response":6,"category":"Tree","background_difficulty":"7","image_path":"images/Tree/With_Backgrounds/difficulty7_image2.png","trial_type":"image-button-response","trial_index":45,"time_elapsed":84932,"internal_node_id":"0.0-2.0-0.43"},{"rt":1698,"stimulus":"images/Cat/With_Backgrounds/difficulty6_image2.png","response":3,"category":"Cat","background_difficulty":"6","image_path":"images/Cat/With_Backgrounds/difficulty6_image2.png","trial_type":"image-button-response","trial_index":46,"time_elapsed":86631,"internal_node_id":"0.0-2.0-0.44"},{"rt":1750,"stimulus":"images/Broccoli/With_Backgrounds/difficulty1_image6.png","response":1,"category":"Broccoli","background_difficulty":"1","image_path":"images/Broccoli/With_Backgrounds/difficulty1_image6.png","trial_type":"image-button-response","trial_index":47,"time_elapsed":88383,"internal_node_id":"0.0-2.0-0.45"},{"rt":1548,"stimulus":"images/Cat/With_Backgrounds/difficulty4_image9.png","response":3,"category":"Cat","background_difficulty":"4","image_path":"images/Cat/With_Backgrounds/difficulty4_image9.png","trial_type":"image-button-response","trial_index":48,"time_elapsed":89933,"internal_node_id":"0.0-2.0-0.46"},{"rt":1475,"stimulus":"images/Human/With_Backgrounds/difficulty7_image6.png","response":5,"category":"Human","background_difficulty":"7","image_path":"images/Human/With_Backgrounds/difficulty7_image6.png","trial_type":"image-button-response","trial_index":49,"time_elapsed":91410,"internal_node_id":"0.0-2.0-0.47"},{"rt":1625,"stimulus":"images/Dog/With_Backgrounds/difficulty1_image6.png","response":4,"category":"Dog","background_difficulty":"1","image_path":"images/Dog/With_Backgrounds/difficulty1_image6.png","trial_type":"image-button-response","trial_index":50,"time_elapsed":93038,"internal_node_id":"0.0-2.0-0.48"},{"rt":1198,"stimulus":"images/Dog/With_Backgrounds/difficulty7_image3.png","response":4,"category":"Dog","background_difficulty":"7","image_path":"images/Dog/With_Backgrounds/difficulty7_image3.png","trial_type":"image-button-response","trial_index":51,"time_elapsed":94237,"internal_node_id":"0.0-2.0-0.49"},{"rt":1764,"stimulus":"images/Broccoli/With_Backgrounds/difficulty0_image0.png","response":1,"category":"Broccoli","background_difficulty":"0","image_path":"images/Broccoli/With_Backgrounds/difficulty0_image0.png","trial_type":"image-button-response","trial_index":52,"time_elapsed":96003,"internal_node_id":"0.0-2.0-0.50"},{"rt":1880,"stimulus":"images/Tree/With_Backgrounds/difficulty1_image1.png","response":6,"category":"Tree","background_difficulty":"1","image_path":"images/Tree/With_Backgrounds/difficulty1_image1.png","trial_type":"image-button-response","trial_index":53,"time_elapsed":97885,"internal_node_id":"0.0-2.0-0.51"},{"rt":1648,"stimulus":"images/Boat/With_Backgrounds/difficulty7_image5.png","response":0,"category":"Boat","background_difficulty":"7","image_path":"images/Boat/With_Backgrounds/difficulty7_image5.png","trial_type":"image-button-response","trial_index":54,"time_elapsed":99535,"internal_node_id":"0.0-2.0-0.52"},{"rt":965,"stimulus":"images/Boat/With_Backgrounds/difficulty6_image4.png","response":0,"category":"Boat","background_difficulty":"6","image_path":"images/Boat/With_Backgrounds/difficulty6_image4.png","trial_type":"image-button-response","trial_index":55,"time_elapsed":100501,"internal_node_id":"0.0-2.0-0.53"},{"rt":1656,"stimulus":"images/Broccoli/With_Backgrounds/difficulty3_image9.png","response":1,"category":"Broccoli","background_difficulty":"3","image_path":"images/Broccoli/With_Backgrounds/difficulty3_image9.png","trial_type":"image-button-response","trial_index":56,"time_elapsed":102159,"internal_node_id":"0.0-2.0-0.54"},{"rt":1147,"stimulus":"images/Broccoli/With_Backgrounds/difficulty8_image4.png","response":1,"category":"Broccoli","background_difficulty":"8","image_path":"images/Broccoli/With_Backgrounds/difficulty8_image4.png","trial_type":"image-button-response","trial_index":57,"time_elapsed":103308,"internal_node_id":"0.0-2.0-0.55"},{"rt":1924,"stimulus":"images/Tree/With_Backgrounds/difficulty2_image6.png","response":6,"category":"Tree","background_difficulty":"2","image_path":"images/Tree/With_Backgrounds/difficulty2_image6.png","trial_type":"image-button-response","trial_index":58,"time_elapsed":105234,"internal_node_id":"0.0-2.0-0.56"},{"rt":1066,"stimulus":"images/Tree/With_Backgrounds/difficulty8_image8.png","response":6,"category":"Tree","background_difficulty":"8","image_path":"images/Tree/With_Backgrounds/difficulty8_image8.png","trial_type":"image-button-response","trial_index":59,"time_elapsed":106303,"internal_node_id":"0.0-2.0-0.57"},{"rt":1741,"stimulus":"images/Dog/With_Backgrounds/difficulty5_image1.png","response":4,"category":"Dog","background_difficulty":"5","image_path":"images/Dog/With_Backgrounds/difficulty5_image1.png","trial_type":"image-button-response","trial_index":60,"time_elapsed":108047,"internal_node_id":"0.0-2.0-0.58"},{"rt":1366,"stimulus":"images/Human/With_Backgrounds/difficulty5_image5.png","response":5,"category":"Human","background_difficulty":"5","image_path":"images/Human/With_Backgrounds/difficulty5_image5.png","trial_type":"image-button-response","trial_index":61,"time_elapsed":109415,"internal_node_id":"0.0-2.0-0.59"},{"rt":1738,"stimulus":"images/Tree/With_Backgrounds/difficulty0_image4.png","response":6,"category":"Tree","background_difficulty":"0","image_path":"images/Tree/With_Backgrounds/difficulty0_image4.png","trial_type":"image-button-response","trial_index":62,"time_elapsed":111155,"internal_node_id":"0.0-2.0-0.60"},{"rt":1913,"stimulus":"images/Car/With_Backgrounds/difficulty2_image2.png","response":2,"category":"Car","background_difficulty":"2","image_path":"images/Car/With_Backgrounds/difficulty2_image2.png","trial_type":"image-button-response","trial_index":63,"time_elapsed":113070,"internal_node_id":"0.0-2.0-0.61"},{"rt":1677,"stimulus":"images/Other/With_Backgrounds/difficulty2_image5.png","response":7,"category":"Other","background_difficulty":"2","image_path":"images/Other/With_Backgrounds/difficulty2_image5.png","trial_type":"image-button-response","trial_index":64,"time_elapsed":114750,"internal_node_id":"0.0-2.0-0.62"},{"rt":2064,"stimulus":"images/Boat/With_Backgrounds/difficulty3_image2.png","response":0,"category":"Boat","background_difficulty":"3","image_path":"images/Boat/With_Backgrounds/difficulty3_image2.png","trial_type":"image-button-response","trial_index":65,"time_elapsed":116818,"internal_node_id":"0.0-2.0-0.63"},{"rt":1611,"stimulus":"images/Other/With_Backgrounds/difficulty3_image7.png","response":7,"category":"Other","background_difficulty":"3","image_path":"images/Other/With_Backgrounds/difficulty3_image7.png","trial_type":"image-button-response","trial_index":66,"time_elapsed":118432,"internal_node_id":"0.0-2.0-0.64"},{"rt":1545,"stimulus":"images/Other/With_Backgrounds/difficulty4_image1.png","response":7,"category":"Other","background_difficulty":"4","image_path":"images/Other/With_Backgrounds/difficulty4_image1.png","trial_type":"image-button-response","trial_index":67,"time_elapsed":119980,"internal_node_id":"0.0-2.0-0.65"},{"rt":1716,"stimulus":"images/Human/With_Backgrounds/difficulty4_image2.png","response":5,"category":"Human","background_difficulty":"4","image_path":"images/Human/With_Backgrounds/difficulty4_image2.png","trial_type":"image-button-response","trial_index":68,"time_elapsed":121698,"internal_node_id":"0.0-2.0-0.66"},{"rt":1709,"stimulus":"images/Cat/With_Backgrounds/difficulty8_image8.png","response":3,"category":"Cat","background_difficulty":"8","image_path":"images/Cat/With_Backgrounds/difficulty8_image8.png","trial_type":"image-button-response","trial_index":69,"time_elapsed":123409,"internal_node_id":"0.0-2.0-0.67"},{"rt":1439,"stimulus":"images/Human/With_Backgrounds/difficulty0_image3.png","response":5,"category":"Human","background_difficulty":"0","image_path":"images/Human/With_Backgrounds/difficulty0_image3.png","trial_type":"image-button-response","trial_index":70,"time_elapsed":124850,"internal_node_id":"0.0-2.0-0.68"},{"rt":1809,"stimulus":"images/Other/With_Backgrounds/difficulty8_image0.png","response":7,"category":"Other","background_difficulty":"8","image_path":"images/Other/With_Backgrounds/difficulty8_image0.png","trial_type":"image-button-response","trial_index":71,"time_elapsed":126662,"internal_node_id":"0.0-2.0-0.69"},{"rt":2324,"stimulus":"images/Boat/With_Backgrounds/difficulty2_image0.png","response":0,"category":"Boat","background_difficulty":"2","image_path":"images/Boat/With_Backgrounds/difficulty2_image0.png","trial_type":"image-button-response","trial_index":72,"time_elapsed":128988,"internal_node_id":"0.0-2.0-0.70"},{"rt":1533,"stimulus":"images/Broccoli/With_Backgrounds/difficulty5_image3.png","response":1,"category":"Broccoli","background_difficulty":"5","image_path":"images/Broccoli/With_Backgrounds/difficulty5_image3.png","trial_type":"image-button-response","trial_index":73,"time_elapsed":130523,"internal_node_id":"0.0-2.0-0.71"},{"rt":1335,"stimulus":["<h2>Press the button below to end experiment.</h2><p>Thank you for participating!</p>"],"response":0,"trial_type":"html-button-response","trial_index":74,"time_elapsed":131860,"internal_node_id":"0.0-3.0"}]