[{"success":true,"timeout":false,"failed_images":[],"failed_audio":[],"failed_video":[],"trial_type":"preload","trial_index":0,"time_elapsed":3627,"internal_node_id":"0.0-0.0"},{"rt":6674,"stimulus":["<h2>Noisy background image classification</h2><p>In this experiment you will briefly see images on top of colored squares of various sizes.</p><p>Your task is to report what each image is, selecting \"None of the Above\" if none of the given options are correct.</p> <p>The possible options are <strong>Boat</strong>, <strong>Broccoli</strong>, <strong>Car</strong>, <strong>Cat</strong>, <strong>Dog</strong>, <strong>Human</strong>, <strong>Tree</strong>, and <strong>None of the Above</strong>"],"response":0,"trial_type":"html-button-response","trial_index":1,"time_elapsed":10314,"internal_node_id":"0.0-1.0"},{"rt":2049,"stimulus":"images/Cat/With_Backgrounds/difficulty4_image9.png","response":3,"category":"Cat","background_difficulty":"4","image_path":"images/Cat/With_Backgrounds/difficulty4_image9.png","trial_type":"image-button-response","trial_index":2,"time_elapsed":12392,"internal_node_id":"0.0-2.0-0.0"},{"rt":1825,"stimulus":"images/Boat/With_Backgrounds/difficulty5_image0.png","response":0,"category":"Boat","background_difficulty":"5","image_path":"images/Boat/With_Backgrounds/difficulty5_image0.png","trial_type":"image-button-response","trial_index":3,"time_elapsed":14226,"internal_node_id":"0.0-2.0-0.1"},{"rt":3117,"stimulus":"images/Other/With_Backgrounds/difficulty2_image6.png","response":7,"category":"Other","background_difficulty":"2","image_path":"images/Other/With_Backgrounds/difficulty2_image6.png","trial_type":"image-button-response","trial_index":4,"time_elapsed":17356,"internal_node_id":"0.0-2.0-0.2"},{"rt":502,"stimulus":"images/Cat/With_Backgrounds/difficulty2_image0.png","response":7,"category":"Cat","background_difficulty":"2","image_path":"images/Cat/With_Backgrounds/difficulty2_image0.png","trial_type":"image-button-response","trial_index":5,"time_elapsed":17872,"internal_node_id":"0.0-2.0-0.3"},{"rt":1187,"stimulus":"images/Dog/With_Backgrounds/difficulty8_image5.png","response":3,"category":"Dog","background_difficulty":"8","image_path":"images/Dog/With_Backgrounds/difficulty8_image5.png","trial_type":"image-button-response","trial_index":6,"time_elapsed":19080,"internal_node_id":"0.0-2.0-0.4"},{"rt":1549,"stimulus":"images/Human/With_Backgrounds/difficulty1_image1.png","response":4,"category":"Human","background_difficulty":"1","image_path":"images/Human/With_Backgrounds/difficulty1_image1.png","trial_type":"image-button-response","trial_index":7,"time_elapsed":20646,"internal_node_id":"0.0-2.0-0.5"},{"rt":2833,"stimulus":"images/Human/With_Backgrounds/difficulty4_image6.png","response":5,"category":"Human","background_difficulty":"4","image_path":"images/Human/With_Backgrounds/difficulty4_image6.png","trial_type":"image-button-response","trial_index":8,"time_elapsed":23491,"internal_node_id":"0.0-2.0-0.6"},{"rt":1833,"stimulus":"images/Broccoli/With_Backgrounds/difficulty4_image3.png","response":1,"category":"Broccoli","background_difficulty":"4","image_path":"images/Broccoli/With_Backgrounds/difficulty4_image3.png","trial_type":"image-button-response","trial_index":9,"time_elapsed":25342,"internal_node_id":"0.0-2.0-0.7"},{"rt":1691,"stimulus":"images/Cat/With_Backgrounds/difficulty6_image3.png","response":3,"category":"Cat","background_difficulty":"6","image_path":"images/Cat/With_Backgrounds/difficulty6_image3.png","trial_type":"image-button-response","trial_index":10,"time_elapsed":27043,"internal_node_id":"0.0-2.0-0.8"},{"rt":2093,"stimulus":"images/Other/With_Backgrounds/difficulty3_image7.png","response":7,"category":"Other","background_difficulty":"3","image_path":"images/Other/With_Backgrounds/difficulty3_image7.png","trial_type":"image-button-response","trial_index":11,"time_elapsed":29152,"internal_node_id":"0.0-2.0-0.9"},{"rt":1698,"stimulus":"images/Boat/With_Backgrounds/difficulty0_image8.png","response":0,"category":"Boat","background_difficulty":"0","image_path":"images/Boat/With_Backgrounds/difficulty0_image8.png","trial_type":"image-button-response","trial_index":12,"time_elapsed":30865,"internal_node_id":"0.0-2.0-0.10"},{"rt":1412,"stimulus":"images/Other/With_Backgrounds/difficulty8_image2.png","response":7,"category":"Other","background_difficulty":"8","image_path":"images/Other/With_Backgrounds/difficulty8_image2.png","trial_type":"image-button-response","trial_index":13,"time_elapsed":32297,"internal_node_id":"0.0-2.0-0.11"},{"rt":1378,"stimulus":"images/Cat/With_Backgrounds/difficulty8_image7.png","response":3,"category":"Cat","background_difficulty":"8","image_path":"images/Cat/With_Backgrounds/difficulty8_image7.png","trial_type":"image-button-response","trial_index":14,"time_elapsed":33694,"internal_node_id":"0.0-2.0-0.12"},{"rt":1402,"stimulus":"images/Human/With_Backgrounds/difficulty2_image8.png","response":5,"category":"Human","background_difficulty":"2","image_path":"images/Human/With_Backgrounds/difficulty2_image8.png","trial_type":"image-button-response","trial_index":15,"time_elapsed":35113,"internal_node_id":"0.0-2.0-0.13"},{"rt":1418,"stimulus":"images/Other/With_Backgrounds/difficulty5_image4.png","response":7,"category":"Other","background_difficulty":"5","image_path":"images/Other/With_Backgrounds/difficulty5_image4.png","trial_type":"image-button-response","trial_index":16,"time_elapsed":36547,"internal_node_id":"0.0-2.0-0.14"},{"rt":1463,"stimulus":"images/Car/With_Backgrounds/difficulty2_image3.png","response":2,"category":"Car","background_difficulty":"2","image_path":"images/Car/With_Backgrounds/difficulty2_image3.png","trial_type":"image-button-response","trial_index":17,"time_elapsed":38022,"internal_node_id":"0.0-2.0-0.15"},{"rt":1175,"stimulus":"images/Car/With_Backgrounds/difficulty8_image0.png","response":2,"category":"Car","background_difficulty":"8","image_path":"images/Car/With_Backgrounds/difficulty8_image0.png","trial_type":"image-button-response","trial_index":18,"time_elapsed":39215,"internal_node_id":"0.0-2.0-0.16"},{"rt":1351,"stimulus":"images/Dog/With_Backgrounds/difficulty5_image9.png","response":4,"category":"Dog","background_difficulty":"5","image_path":"images/Dog/With_Backgrounds/difficulty5_image9.png","trial_type":"image-button-response","trial_index":19,"time_elapsed":40584,"internal_node_id":"0.0-2.0-0.17"},{"rt":1482,"stimulus":"images/Tree/With_Backgrounds/difficulty7_image8.png","response":6,"category":"Tree","background_difficulty":"7","image_path":"images/Tree/With_Backgrounds/difficulty7_image8.png","trial_type":"image-button-response","trial_index":20,"time_elapsed":42084,"internal_node_id":"0.0-2.0-0.18"},{"rt":1500,"stimulus":"images/Car/With_Backgrounds/difficulty6_image1.png","response":2,"category":"Car","background_difficulty":"6","image_path":"images/Car/With_Backgrounds/difficulty6_image1.png","trial_type":"image-button-response","trial_index":21,"time_elapsed":43598,"internal_node_id":"0.0-2.0-0.19"},{"rt":1730,"stimulus":"images/Tree/With_Backgrounds/difficulty3_image4.png","response":6,"category":"Tree","background_difficulty":"3","image_path":"images/Tree/With_Backgrounds/difficulty3_image4.png","trial_type":"image-button-response","trial_index":22,"time_elapsed":45336,"internal_node_id":"0.0-2.0-0.20"},{"rt":1293,"stimulus":"images/Human/With_Backgrounds/difficulty0_image4.png","response":5,"category":"Human","background_difficulty":"0","image_path":"images/Human/With_Backgrounds/difficulty0_image4.png","trial_type":"image-button-response","trial_index":23,"time_elapsed":46641,"internal_node_id":"0.0-2.0-0.21"},{"rt":1446,"stimulus":"images/Tree/With_Backgrounds/difficulty2_image6.png","response":6,"category":"Tree","background_difficulty":"2","image_path":"images/Tree/With_Backgrounds/difficulty2_image6.png","trial_type":"image-button-response","trial_index":24,"time_elapsed":48103,"internal_node_id":"0.0-2.0-0.22"},{"rt":1559,"stimulus":"images/Broccoli/With_Backgrounds/difficulty2_image6.png","response":1,"category":"Broccoli","background_difficulty":"2","image_path":"images/Broccoli/With_Backgrounds/difficulty2_image6.png","trial_type":"image-button-response","trial_index":25,"time_elapsed":49679,"internal_node_id":"0.0-2.0-0.23"},{"rt":1420,"stimulus":"images/Human/With_Backgrounds/difficulty8_image7.png","response":5,"category":"Human","background_difficulty":"8","image_path":"images/Human/With_Backgrounds/difficulty8_image7.png","trial_type":"image-button-response","trial_index":26,"time_elapsed":51119,"internal_node_id":"0.0-2.0-0.24"},{"rt":2323,"stimulus":"images/Cat/With_Backgrounds/difficulty5_image1.png","response":3,"category":"Cat","background_difficulty":"5","image_path":"images/Cat/With_Backgrounds/difficulty5_image1.png","trial_type":"image-button-response","trial_index":27,"time_elapsed":53460,"internal_node_id":"0.0-2.0-0.25"},{"rt":1266,"stimulus":"images/Dog/With_Backgrounds/difficulty7_image3.png","response":4,"category":"Dog","background_difficulty":"7","image_path":"images/Dog/With_Backgrounds/difficulty7_image3.png","trial_type":"image-button-response","trial_index":28,"time_elapsed":54746,"internal_node_id":"0.0-2.0-0.26"},{"rt":1409,"stimulus":"images/Other/With_Backgrounds/difficulty4_image0.png","response":7,"category":"Other","background_difficulty":"4","image_path":"images/Other/With_Backgrounds/difficulty4_image0.png","trial_type":"image-button-response","trial_index":29,"time_elapsed":56171,"internal_node_id":"0.0-2.0-0.27"},{"rt":1386,"stimulus":"images/Other/With_Backgrounds/difficulty0_image5.png","response":7,"category":"Other","background_difficulty":"0","image_path":"images/Other/With_Backgrounds/difficulty0_image5.png","trial_type":"image-button-response","trial_index":30,"time_elapsed":57573,"internal_node_id":"0.0-2.0-0.28"},{"rt":1594,"stimulus":"images/Car/With_Backgrounds/difficulty4_image6.png","response":2,"category":"Car","background_difficulty":"4","image_path":"images/Car/With_Backgrounds/difficulty4_image6.png","trial_type":"image-button-response","trial_index":31,"time_elapsed":59183,"internal_node_id":"0.0-2.0-0.29"},{"rt":1309,"stimulus":"images/Broccoli/With_Backgrounds/difficulty6_image7.png","response":1,"category":"Broccoli","background_difficulty":"6","image_path":"images/Broccoli/With_Backgrounds/difficulty6_image7.png","trial_type":"image-button-response","trial_index":32,"time_elapsed":60507,"internal_node_id":"0.0-2.0-0.30"},{"rt":1578,"stimulus":"images/Dog/With_Backgrounds/difficulty1_image8.png","response":4,"category":"Dog","background_difficulty":"1","image_path":"images/Dog/With_Backgrounds/difficulty1_image8.png","trial_type":"image-button-response","trial_index":33,"time_elapsed":62101,"internal_node_id":"0.0-2.0-0.31"},{"rt":1245,"stimulus":"images/Cat/With_Backgrounds/difficulty0_image2.png","response":3,"category":"Cat","background_difficulty":"0","image_path":"images/Cat/With_Backgrounds/difficulty0_image2.png","trial_type":"image-button-response","trial_index":34,"time_elapsed":63361,"internal_node_id":"0.0-2.0-0.32"},{"rt":1660,"stimulus":"images/Boat/With_Backgrounds/difficulty6_image1.png","response":0,"category":"Boat","background_difficulty":"6","image_path":"images/Boat/With_Backgrounds/difficulty6_image1.png","trial_type":"image-button-response","trial_index":35,"time_elapsed":65036,"internal_node_id":"0.0-2.0-0.33"},{"rt":1168,"stimulus":"images/Boat/With_Backgrounds/difficulty8_image3.png","response":0,"category":"Boat","background_difficulty":"8","image_path":"images/Boat/With_Backgrounds/difficulty8_image3.png","trial_type":"image-button-response","trial_index":36,"time_elapsed":66227,"internal_node_id":"0.0-2.0-0.34"},{"rt":1357,"stimulus":"images/Dog/With_Backgrounds/difficulty2_image7.png","response":4,"category":"Dog","background_difficulty":"2","image_path":"images/Dog/With_Backgrounds/difficulty2_image7.png","trial_type":"image-button-response","trial_index":37,"time_elapsed":67600,"internal_node_id":"0.0-2.0-0.35"},{"rt":1307,"stimulus":"images/Broccoli/With_Backgrounds/difficulty7_image0.png","response":1,"category":"Broccoli","background_difficulty":"7","image_path":"images/Broccoli/With_Backgrounds/difficulty7_image0.png","trial_type":"image-button-response","trial_index":38,"time_elapsed":68921,"internal_node_id":"0.0-2.0-0.36"},{"rt":1500,"stimulus":"images/Car/With_Backgrounds/difficulty1_image2.png","response":2,"category":"Car","background_difficulty":"1","image_path":"images/Car/With_Backgrounds/difficulty1_image2.png","trial_type":"image-button-response","trial_index":39,"time_elapsed":70434,"internal_node_id":"0.0-2.0-0.37"},{"rt":1329,"stimulus":"images/Other/With_Backgrounds/difficulty7_image1.png","response":7,"category":"Other","background_difficulty":"7","image_path":"images/Other/With_Backgrounds/difficulty7_image1.png","trial_type":"image-button-response","trial_index":40,"time_elapsed":71782,"internal_node_id":"0.0-2.0-0.38"},{"rt":1248,"stimulus":"images/Dog/With_Backgrounds/difficulty4_image4.png","response":4,"category":"Dog","background_difficulty":"4","image_path":"images/Dog/With_Backgrounds/difficulty4_image4.png","trial_type":"image-button-response","trial_index":41,"time_elapsed":73047,"internal_node_id":"0.0-2.0-0.39"},{"rt":1192,"stimulus":"images/Dog/With_Backgrounds/difficulty3_image0.png","response":4,"category":"Dog","background_difficulty":"3","image_path":"images/Dog/With_Backgrounds/difficulty3_image0.png","trial_type":"image-button-response","trial_index":42,"time_elapsed":74256,"internal_node_id":"0.0-2.0-0.40"},{"rt":1605,"stimulus":"images/Tree/With_Backgrounds/difficulty0_image1.png","response":6,"category":"Tree","background_difficulty":"0","image_path":"images/Tree/With_Backgrounds/difficulty0_image1.png","trial_type":"image-button-response","trial_index":43,"time_elapsed":75873,"internal_node_id":"0.0-2.0-0.41"},{"rt":1258,"stimulus":"images/Boat/With_Backgrounds/difficulty2_image6.png","response":0,"category":"Boat","background_difficulty":"2","image_path":"images/Boat/With_Backgrounds/difficulty2_image6.png","trial_type":"image-button-response","trial_index":44,"time_elapsed":77142,"internal_node_id":"0.0-2.0-0.42"},{"rt":1200,"stimulus":"images/Tree/With_Backgrounds/difficulty4_image3.png","response":6,"category":"Tree","background_difficulty":"4","image_path":"images/Tree/With_Backgrounds/difficulty4_image3.png","trial_type":"image-button-response","trial_index":45,"time_elapsed":78357,"internal_node_id":"0.0-2.0-0.43"},{"rt":2339,"stimulus":"images/Boat/With_Backgrounds/difficulty4_image5.png","response":0,"category":"Boat","background_difficulty":"4","image_path":"images/Boat/With_Backgrounds/difficulty4_image5.png","trial_type":"image-button-response","trial_index":46,"time_elapsed":80710,"internal_node_id":"0.0-2.0-0.44"},{"rt":1247,"stimulus":"images/Human/With_Backgrounds/difficulty3_image2.png","response":5,"category":"Human","background_difficulty":"3","image_path":"images/Human/With_Backgrounds/difficulty3_image2.png","trial_type":"image-button-response","trial_index":47,"time_elapsed":81969,"internal_node_id":"0.0-2.0-0.45"},{"rt":1254,"stimulus":"images/Other/With_Backgrounds/difficulty1_image8.png","response":7,"category":"Other","background_difficulty":"1","image_path":"images/Other/With_Backgrounds/difficulty1_image8.png","trial_type":"image-button-response","trial_index":48,"time_elapsed":83237,"internal_node_id":"0.0-2.0-0.46"},{"rt":1379,"stimulus":"images/Car/With_Backgrounds/difficulty0_image4.png","response":2,"category":"Car","background_difficulty":"0","image_path":"images/Car/With_Backgrounds/difficulty0_image4.png","trial_type":"image-button-response","trial_index":49,"time_elapsed":84628,"internal_node_id":"0.0-2.0-0.47"},{"rt":1287,"stimulus":"images/Dog/With_Backgrounds/difficulty0_image2.png","response":4,"category":"Dog","background_difficulty":"0","image_path":"images/Dog/With_Backgrounds/difficulty0_image2.png","trial_type":"image-button-response","trial_index":50,"time_elapsed":85929,"internal_node_id":"0.0-2.0-0.48"},{"rt":2086,"stimulus":"images/Broccoli/With_Backgrounds/difficulty0_image5.png","response":1,"category":"Broccoli","background_difficulty":"0","image_path":"images/Broccoli/With_Backgrounds/difficulty0_image5.png","trial_type":"image-button-response","trial_index":51,"time_elapsed":88031,"internal_node_id":"0.0-2.0-0.49"},{"rt":1307,"stimulus":"images/Car/With_Backgrounds/difficulty7_image9.png","response":2,"category":"Car","background_difficulty":"7","image_path":"images/Car/With_Backgrounds/difficulty7_image9.png","trial_type":"image-button-response","trial_index":52,"time_elapsed":89355,"internal_node_id":"0.0-2.0-0.50"},{"rt":1195,"stimulus":"images/Cat/With_Backgrounds/difficulty3_image5.png","response":3,"category":"Cat","background_difficulty":"3","image_path":"images/Cat/With_Backgrounds/difficulty3_image5.png","trial_type":"image-button-response","trial_index":53,"time_elapsed":90566,"internal_node_id":"0.0-2.0-0.51"},{"rt":1402,"stimulus":"images/Tree/With_Backgrounds/difficulty6_image0.png","response":6,"category":"Tree","background_difficulty":"6","image_path":"images/Tree/With_Backgrounds/difficulty6_image0.png","trial_type":"image-button-response","trial_index":54,"time_elapsed":91981,"internal_node_id":"0.0-2.0-0.52"},{"rt":1640,"stimulus":"images/Car/With_Backgrounds/difficulty5_image5.png","response":2,"category":"Car","background_difficulty":"5","image_path":"images/Car/With_Backgrounds/difficulty5_image5.png","trial_type":"image-button-response","trial_index":55,"time_elapsed":93633,"internal_node_id":"0.0-2.0-0.53"},{"rt":1455,"stimulus":"images/Broccoli/With_Backgrounds/difficulty3_image2.png","response":1,"category":"Broccoli","background_difficulty":"3","image_path":"images/Broccoli/With_Backgrounds/difficulty3_image2.png","trial_type":"image-button-response","trial_index":56,"time_elapsed":95101,"internal_node_id":"0.0-2.0-0.54"},{"rt":1266,"stimulus":"images/Other/With_Backgrounds/difficulty6_image9.png","response":7,"category":"Other","background_difficulty":"6","image_path":"images/Other/With_Backgrounds/difficulty6_image9.png","trial_type":"image-button-response","trial_index":57,"time_elapsed":96376,"internal_node_id":"0.0-2.0-0.55"},{"rt":1266,"stimulus":"images/Dog/With_Backgrounds/difficulty6_image6.png","response":4,"category":"Dog","background_difficulty":"6","image_path":"images/Dog/With_Backgrounds/difficulty6_image6.png","trial_type":"image-button-response","trial_index":58,"time_elapsed":97658,"internal_node_id":"0.0-2.0-0.56"},{"rt":1343,"stimulus":"images/Broccoli/With_Backgrounds/difficulty8_image1.png","response":1,"category":"Broccoli","background_difficulty":"8","image_path":"images/Broccoli/With_Backgrounds/difficulty8_image1.png","trial_type":"image-button-response","trial_index":59,"time_elapsed":99018,"internal_node_id":"0.0-2.0-0.57"},{"rt":1190,"stimulus":"images/Broccoli/With_Backgrounds/difficulty5_image4.png","response":1,"category":"Broccoli","background_difficulty":"5","image_path":"images/Broccoli/With_Backgrounds/difficulty5_image4.png","trial_type":"image-button-response","trial_index":60,"time_elapsed":100225,"internal_node_id":"0.0-2.0-0.58"},{"rt":1310,"stimulus":"images/Human/With_Backgrounds/difficulty6_image0.png","response":5,"category":"Human","background_difficulty":"6","image_path":"images/Human/With_Backgrounds/difficulty6_image0.png","trial_type":"image-button-response","trial_index":61,"time_elapsed":101553,"internal_node_id":"0.0-2.0-0.59"},{"rt":1091,"stimulus":"images/Human/With_Backgrounds/difficulty7_image3.png","response":5,"category":"Human","background_difficulty":"7","image_path":"images/Human/With_Backgrounds/difficulty7_image3.png","trial_type":"image-button-response","trial_index":62,"time_elapsed":102662,"internal_node_id":"0.0-2.0-0.60"},{"rt":1450,"stimulus":"images/Cat/With_Backgrounds/difficulty1_image8.png","response":3,"category":"Cat","background_difficulty":"1","image_path":"images/Cat/With_Backgrounds/difficulty1_image8.png","trial_type":"image-button-response","trial_index":63,"time_elapsed":104127,"internal_node_id":"0.0-2.0-0.61"},{"rt":1176,"stimulus":"images/Broccoli/With_Backgrounds/difficulty1_image8.png","response":1,"category":"Broccoli","background_difficulty":"1","image_path":"images/Broccoli/With_Backgrounds/difficulty1_image8.png","trial_type":"image-button-response","trial_index":64,"time_elapsed":105315,"internal_node_id":"0.0-2.0-0.62"},{"rt":1282,"stimulus":"images/Cat/With_Backgrounds/difficulty7_image4.png","response":3,"category":"Cat","background_difficulty":"7","image_path":"images/Cat/With_Backgrounds/difficulty7_image4.png","trial_type":"image-button-response","trial_index":65,"time_elapsed":106614,"internal_node_id":"0.0-2.0-0.63"},{"rt":1520,"stimulus":"images/Tree/With_Backgrounds/difficulty8_image7.png","response":5,"category":"Tree","background_difficulty":"8","image_path":"images/Tree/With_Backgrounds/difficulty8_image7.png","trial_type":"image-button-response","trial_index":66,"time_elapsed":108152,"internal_node_id":"0.0-2.0-0.64"},{"rt":1560,"stimulus":"images/Car/With_Backgrounds/difficulty3_image8.png","response":2,"category":"Car","background_difficulty":"3","image_path":"images/Car/With_Backgrounds/difficulty3_image8.png","trial_type":"image-button-response","trial_index":67,"time_elapsed":109734,"internal_node_id":"0.0-2.0-0.65"},{"rt":1507,"stimulus":"images/Boat/With_Backgrounds/difficulty3_image4.png","response":0,"category":"Boat","background_difficulty":"3","image_path":"images/Boat/With_Backgrounds/difficulty3_image4.png","trial_type":"image-button-response","trial_index":68,"time_elapsed":111255,"internal_node_id":"0.0-2.0-0.66"},{"rt":1317,"stimulus":"images/Boat/With_Backgrounds/difficulty1_image2.png","response":0,"category":"Boat","background_difficulty":"1","image_path":"images/Boat/With_Backgrounds/difficulty1_image2.png","trial_type":"image-button-response","trial_index":69,"time_elapsed":112585,"internal_node_id":"0.0-2.0-0.67"},{"rt":1453,"stimulus":"images/Tree/With_Backgrounds/difficulty5_image5.png","response":6,"category":"Tree","background_difficulty":"5","image_path":"images/Tree/With_Backgrounds/difficulty5_image5.png","trial_type":"image-button-response","trial_index":70,"time_elapsed":114055,"internal_node_id":"0.0-2.0-0.68"},{"rt":1051,"stimulus":"images/Tree/With_Backgrounds/difficulty1_image2.png","response":6,"category":"Tree","background_difficulty":"1","image_path":"images/Tree/With_Backgrounds/difficulty1_image2.png","trial_type":"image-button-response","trial_index":71,"time_elapsed":115120,"internal_node_id":"0.0-2.0-0.69"},{"rt":1157,"stimulus":"images/Human/With_Backgrounds/difficulty5_image9.png","response":5,"category":"Human","background_difficulty":"5","image_path":"images/Human/With_Backgrounds/difficulty5_image9.png","trial_type":"image-button-response","trial_index":72,"time_elapsed":116293,"internal_node_id":"0.0-2.0-0.70"},{"rt":1334,"stimulus":"images/Boat/With_Backgrounds/difficulty7_image7.png","response":0,"category":"Boat","background_difficulty":"7","image_path":"images/Boat/With_Backgrounds/difficulty7_image7.png","trial_type":"image-button-response","trial_index":73,"time_elapsed":117640,"internal_node_id":"0.0-2.0-0.71"},{"rt":1506,"stimulus":["<h2>Press the button below to end experiment.</h2><p>Thank you for participating!</p>"],"response":0,"trial_type":"html-button-response","trial_index":74,"time_elapsed":119150,"internal_node_id":"0.0-3.0"}]