[{"success":true,"timeout":false,"failed_images":[],"failed_audio":[],"failed_video":[],"trial_type":"preload","trial_index":0,"time_elapsed":665,"internal_node_id":"0.0-0.0"},{"rt":13699,"stimulus":["<h2>Noisy background image classification</h2><p>In this experiment you will briefly see images on top of colored squares of various sizes.</p><p>Your task is to report what each image is, selecting \"None of the Above\" if none of the given options are correct.</p> <p>The possible options are <strong>Boat</strong>, <strong>Broccoli</strong>, <strong>Car</strong>, <strong>Cat</strong>, <strong>Dog</strong>, <strong>Human</strong>, <strong>Tree</strong>, and <strong>None of the Above</strong>"],"response":0,"trial_type":"html-button-response","trial_index":1,"time_elapsed":14366,"internal_node_id":"0.0-1.0"},{"rt":2715,"stimulus":"images/Boat/With_Backgrounds/difficulty6_image2.png","response":0,"category":"Boat","background_difficulty":"6","image_path":"images/Boat/With_Backgrounds/difficulty6_image2.png","trial_type":"image-button-response","trial_index":2,"time_elapsed":17096,"internal_node_id":"0.0-2.0-0.0"},{"rt":2054,"stimulus":"images/Human/With_Backgrounds/difficulty6_image7.png","response":5,"category":"Human","background_difficulty":"6","image_path":"images/Human/With_Backgrounds/difficulty6_image7.png","trial_type":"image-button-response","trial_index":3,"time_elapsed":19162,"internal_node_id":"0.0-2.0-0.1"},{"rt":1737,"stimulus":"images/Car/With_Backgrounds/difficulty8_image8.png","response":2,"category":"Car","background_difficulty":"8","image_path":"images/Car/With_Backgrounds/difficulty8_image8.png","trial_type":"image-button-response","trial_index":4,"time_elapsed":20912,"internal_node_id":"0.0-2.0-0.2"},{"rt":2457,"stimulus":"images/Other/With_Backgrounds/difficulty0_image2.png","response":7,"category":"Other","background_difficulty":"0","image_path":"images/Other/With_Backgrounds/difficulty0_image2.png","trial_type":"image-button-response","trial_index":5,"time_elapsed":23379,"internal_node_id":"0.0-2.0-0.3"},{"rt":1690,"stimulus":"images/Car/With_Backgrounds/difficulty1_image2.png","response":2,"category":"Car","background_difficulty":"1","image_path":"images/Car/With_Backgrounds/difficulty1_image2.png","trial_type":"image-button-response","trial_index":6,"time_elapsed":25079,"internal_node_id":"0.0-2.0-0.4"},{"rt":2007,"stimulus":"images/Other/With_Backgrounds/difficulty5_image8.png","response":7,"category":"Other","background_difficulty":"5","image_path":"images/Other/With_Backgrounds/difficulty5_image8.png","trial_type":"image-button-response","trial_index":7,"time_elapsed":27096,"internal_node_id":"0.0-2.0-0.5"},{"rt":1803,"stimulus":"images/Cat/With_Backgrounds/difficulty8_image9.png","response":3,"category":"Cat","background_difficulty":"8","image_path":"images/Cat/With_Backgrounds/difficulty8_image9.png","trial_type":"image-button-response","trial_index":8,"time_elapsed":28913,"internal_node_id":"0.0-2.0-0.6"},{"rt":1673,"stimulus":"images/Other/With_Backgrounds/difficulty1_image3.png","response":7,"category":"Other","background_difficulty":"1","image_path":"images/Other/With_Backgrounds/difficulty1_image3.png","trial_type":"image-button-response","trial_index":9,"time_elapsed":30596,"internal_node_id":"0.0-2.0-0.7"},{"rt":1990,"stimulus":"images/Boat/With_Backgrounds/difficulty1_image3.png","response":0,"category":"Boat","background_difficulty":"1","image_path":"images/Boat/With_Backgrounds/difficulty1_image3.png","trial_type":"image-button-response","trial_index":10,"time_elapsed":32596,"internal_node_id":"0.0-2.0-0.8"},{"rt":1404,"stimulus":"images/Broccoli/With_Backgrounds/difficulty8_image3.png","response":1,"category":"Broccoli","background_difficulty":"8","image_path":"images/Broccoli/With_Backgrounds/difficulty8_image3.png","trial_type":"image-button-response","trial_index":11,"time_elapsed":34013,"internal_node_id":"0.0-2.0-0.9"},{"rt":1806,"stimulus":"images/Cat/With_Backgrounds/difficulty2_image5.png","response":3,"category":"Cat","background_difficulty":"2","image_path":"images/Cat/With_Backgrounds/difficulty2_image5.png","trial_type":"image-button-response","trial_index":12,"time_elapsed":35829,"internal_node_id":"0.0-2.0-0.10"},{"rt":1556,"stimulus":"images/Broccoli/With_Backgrounds/difficulty5_image8.png","response":1,"category":"Broccoli","background_difficulty":"5","image_path":"images/Broccoli/With_Backgrounds/difficulty5_image8.png","trial_type":"image-button-response","trial_index":13,"time_elapsed":37396,"internal_node_id":"0.0-2.0-0.11"},{"rt":1925,"stimulus":"images/Boat/With_Backgrounds/difficulty0_image6.png","response":0,"category":"Boat","background_difficulty":"0","image_path":"images/Boat/With_Backgrounds/difficulty0_image6.png","trial_type":"image-button-response","trial_index":14,"time_elapsed":39329,"internal_node_id":"0.0-2.0-0.12"},{"rt":1506,"stimulus":"images/Human/With_Backgrounds/difficulty2_image5.png","response":5,"category":"Human","background_difficulty":"2","image_path":"images/Human/With_Backgrounds/difficulty2_image5.png","trial_type":"image-button-response","trial_index":15,"time_elapsed":40846,"internal_node_id":"0.0-2.0-0.13"},{"rt":1640,"stimulus":"images/Dog/With_Backgrounds/difficulty5_image0.png","response":4,"category":"Dog","background_difficulty":"5","image_path":"images/Dog/With_Backgrounds/difficulty5_image0.png","trial_type":"image-button-response","trial_index":16,"time_elapsed":42496,"internal_node_id":"0.0-2.0-0.14"},{"rt":1387,"stimulus":"images/Dog/With_Backgrounds/difficulty1_image8.png","response":4,"category":"Dog","background_difficulty":"1","image_path":"images/Dog/With_Backgrounds/difficulty1_image8.png","trial_type":"image-button-response","trial_index":17,"time_elapsed":43896,"internal_node_id":"0.0-2.0-0.15"},{"rt":1407,"stimulus":"images/Broccoli/With_Backgrounds/difficulty2_image6.png","response":1,"category":"Broccoli","background_difficulty":"2","image_path":"images/Broccoli/With_Backgrounds/difficulty2_image6.png","trial_type":"image-button-response","trial_index":18,"time_elapsed":45313,"internal_node_id":"0.0-2.0-0.16"},{"rt":1555,"stimulus":"images/Boat/With_Backgrounds/difficulty2_image0.png","response":0,"category":"Boat","background_difficulty":"2","image_path":"images/Boat/With_Backgrounds/difficulty2_image0.png","trial_type":"image-button-response","trial_index":19,"time_elapsed":46880,"internal_node_id":"0.0-2.0-0.17"},{"rt":1691,"stimulus":"images/Dog/With_Backgrounds/difficulty2_image6.png","response":4,"category":"Dog","background_difficulty":"2","image_path":"images/Dog/With_Backgrounds/difficulty2_image6.png","trial_type":"image-button-response","trial_index":20,"time_elapsed":48580,"internal_node_id":"0.0-2.0-0.18"},{"rt":1471,"stimulus":"images/Human/With_Backgrounds/difficulty4_image4.png","response":5,"category":"Human","background_difficulty":"4","image_path":"images/Human/With_Backgrounds/difficulty4_image4.png","trial_type":"image-button-response","trial_index":21,"time_elapsed":50064,"internal_node_id":"0.0-2.0-0.19"},{"rt":1756,"stimulus":"images/Other/With_Backgrounds/difficulty4_image4.png","response":7,"category":"Other","background_difficulty":"4","image_path":"images/Other/With_Backgrounds/difficulty4_image4.png","trial_type":"image-button-response","trial_index":22,"time_elapsed":51830,"internal_node_id":"0.0-2.0-0.20"},{"rt":1324,"stimulus":"images/Other/With_Backgrounds/difficulty6_image9.png","response":7,"category":"Other","background_difficulty":"6","image_path":"images/Other/With_Backgrounds/difficulty6_image9.png","trial_type":"image-button-response","trial_index":23,"time_elapsed":53167,"internal_node_id":"0.0-2.0-0.21"},{"rt":1742,"stimulus":"images/Tree/With_Backgrounds/difficulty4_image4.png","response":6,"category":"Tree","background_difficulty":"4","image_path":"images/Tree/With_Backgrounds/difficulty4_image4.png","trial_type":"image-button-response","trial_index":24,"time_elapsed":54920,"internal_node_id":"0.0-2.0-0.22"},{"rt":1351,"stimulus":"images/Tree/With_Backgrounds/difficulty6_image6.png","response":6,"category":"Tree","background_difficulty":"6","image_path":"images/Tree/With_Backgrounds/difficulty6_image6.png","trial_type":"image-button-response","trial_index":25,"time_elapsed":56281,"internal_node_id":"0.0-2.0-0.23"},{"rt":1405,"stimulus":"images/Broccoli/With_Backgrounds/difficulty7_image1.png","response":1,"category":"Broccoli","background_difficulty":"7","image_path":"images/Broccoli/With_Backgrounds/difficulty7_image1.png","trial_type":"image-button-response","trial_index":26,"time_elapsed":57698,"internal_node_id":"0.0-2.0-0.24"},{"rt":1489,"stimulus":"images/Dog/With_Backgrounds/difficulty3_image7.png","response":4,"category":"Dog","background_difficulty":"3","image_path":"images/Dog/With_Backgrounds/difficulty3_image7.png","trial_type":"image-button-response","trial_index":27,"time_elapsed":59200,"internal_node_id":"0.0-2.0-0.25"},{"rt":1475,"stimulus":"images/Car/With_Backgrounds/difficulty3_image7.png","response":2,"category":"Car","background_difficulty":"3","image_path":"images/Car/With_Backgrounds/difficulty3_image7.png","trial_type":"image-button-response","trial_index":28,"time_elapsed":60685,"internal_node_id":"0.0-2.0-0.26"},{"rt":1319,"stimulus":"images/Broccoli/With_Backgrounds/difficulty6_image5.png","response":1,"category":"Broccoli","background_difficulty":"6","image_path":"images/Broccoli/With_Backgrounds/difficulty6_image5.png","trial_type":"image-button-response","trial_index":29,"time_elapsed":62015,"internal_node_id":"0.0-2.0-0.27"},{"rt":1773,"stimulus":"images/Cat/With_Backgrounds/difficulty0_image6.png","response":3,"category":"Cat","background_difficulty":"0","image_path":"images/Cat/With_Backgrounds/difficulty0_image6.png","trial_type":"image-button-response","trial_index":30,"time_elapsed":63798,"internal_node_id":"0.0-2.0-0.28"},{"rt":1472,"stimulus":"images/Cat/With_Backgrounds/difficulty5_image4.png","response":3,"category":"Cat","background_difficulty":"5","image_path":"images/Cat/With_Backgrounds/difficulty5_image4.png","trial_type":"image-button-response","trial_index":31,"time_elapsed":65281,"internal_node_id":"0.0-2.0-0.29"},{"rt":1257,"stimulus":"images/Broccoli/With_Backgrounds/difficulty3_image7.png","response":1,"category":"Broccoli","background_difficulty":"3","image_path":"images/Broccoli/With_Backgrounds/difficulty3_image7.png","trial_type":"image-button-response","trial_index":32,"time_elapsed":66548,"internal_node_id":"0.0-2.0-0.30"},{"rt":1522,"stimulus":"images/Tree/With_Backgrounds/difficulty7_image2.png","response":6,"category":"Tree","background_difficulty":"7","image_path":"images/Tree/With_Backgrounds/difficulty7_image2.png","trial_type":"image-button-response","trial_index":33,"time_elapsed":68082,"internal_node_id":"0.0-2.0-0.31"},{"rt":1807,"stimulus":"images/Boat/With_Backgrounds/difficulty5_image8.png","response":0,"category":"Boat","background_difficulty":"5","image_path":"images/Boat/With_Backgrounds/difficulty5_image8.png","trial_type":"image-button-response","trial_index":34,"time_elapsed":69901,"internal_node_id":"0.0-2.0-0.32"},{"rt":1574,"stimulus":"images/Cat/With_Backgrounds/difficulty3_image1.png","response":3,"category":"Cat","background_difficulty":"3","image_path":"images/Cat/With_Backgrounds/difficulty3_image1.png","trial_type":"image-button-response","trial_index":35,"time_elapsed":71487,"internal_node_id":"0.0-2.0-0.33"},{"rt":1318,"stimulus":"images/Human/With_Backgrounds/difficulty5_image6.png","response":5,"category":"Human","background_difficulty":"5","image_path":"images/Human/With_Backgrounds/difficulty5_image6.png","trial_type":"image-button-response","trial_index":36,"time_elapsed":72815,"internal_node_id":"0.0-2.0-0.34"},{"rt":1470,"stimulus":"images/Other/With_Backgrounds/difficulty8_image5.png","response":7,"category":"Other","background_difficulty":"8","image_path":"images/Other/With_Backgrounds/difficulty8_image5.png","trial_type":"image-button-response","trial_index":37,"time_elapsed":74299,"internal_node_id":"0.0-2.0-0.35"},{"rt":1707,"stimulus":"images/Cat/With_Backgrounds/difficulty1_image8.png","response":3,"category":"Cat","background_difficulty":"1","image_path":"images/Cat/With_Backgrounds/difficulty1_image8.png","trial_type":"image-button-response","trial_index":38,"time_elapsed":76019,"internal_node_id":"0.0-2.0-0.36"},{"rt":1721,"stimulus":"images/Boat/With_Backgrounds/difficulty4_image1.png","response":0,"category":"Boat","background_difficulty":"4","image_path":"images/Boat/With_Backgrounds/difficulty4_image1.png","trial_type":"image-button-response","trial_index":39,"time_elapsed":77748,"internal_node_id":"0.0-2.0-0.37"},{"rt":1507,"stimulus":"images/Other/With_Backgrounds/difficulty2_image0.png","response":7,"category":"Other","background_difficulty":"2","image_path":"images/Other/With_Backgrounds/difficulty2_image0.png","trial_type":"image-button-response","trial_index":40,"time_elapsed":79265,"internal_node_id":"0.0-2.0-0.38"},{"rt":2806,"stimulus":"images/Dog/With_Backgrounds/difficulty4_image1.png","response":4,"category":"Dog","background_difficulty":"4","image_path":"images/Dog/With_Backgrounds/difficulty4_image1.png","trial_type":"image-button-response","trial_index":41,"time_elapsed":82082,"internal_node_id":"0.0-2.0-0.39"},{"rt":1338,"stimulus":"images/Human/With_Backgrounds/difficulty8_image0.png","response":5,"category":"Human","background_difficulty":"8","image_path":"images/Human/With_Backgrounds/difficulty8_image0.png","trial_type":"image-button-response","trial_index":42,"time_elapsed":83432,"internal_node_id":"0.0-2.0-0.40"},{"rt":1389,"stimulus":"images/Car/With_Backgrounds/difficulty5_image3.png","response":2,"category":"Car","background_difficulty":"5","image_path":"images/Car/With_Backgrounds/difficulty5_image3.png","trial_type":"image-button-response","trial_index":43,"time_elapsed":84832,"internal_node_id":"0.0-2.0-0.41"},{"rt":1607,"stimulus":"images/Tree/With_Backgrounds/difficulty2_image7.png","response":6,"category":"Tree","background_difficulty":"2","image_path":"images/Tree/With_Backgrounds/difficulty2_image7.png","trial_type":"image-button-response","trial_index":44,"time_elapsed":86449,"internal_node_id":"0.0-2.0-0.42"},{"rt":1337,"stimulus":"images/Human/With_Backgrounds/difficulty7_image8.png","response":5,"category":"Human","background_difficulty":"7","image_path":"images/Human/With_Backgrounds/difficulty7_image8.png","trial_type":"image-button-response","trial_index":45,"time_elapsed":87799,"internal_node_id":"0.0-2.0-0.43"},{"rt":1422,"stimulus":"images/Tree/With_Backgrounds/difficulty5_image0.png","response":6,"category":"Tree","background_difficulty":"5","image_path":"images/Tree/With_Backgrounds/difficulty5_image0.png","trial_type":"image-button-response","trial_index":46,"time_elapsed":89232,"internal_node_id":"0.0-2.0-0.44"},{"rt":1455,"stimulus":"images/Car/With_Backgrounds/difficulty0_image5.png","response":2,"category":"Car","background_difficulty":"0","image_path":"images/Car/With_Backgrounds/difficulty0_image5.png","trial_type":"image-button-response","trial_index":47,"time_elapsed":90700,"internal_node_id":"0.0-2.0-0.45"},{"rt":1722,"stimulus":"images/Boat/With_Backgrounds/difficulty7_image9.png","response":0,"category":"Boat","background_difficulty":"7","image_path":"images/Boat/With_Backgrounds/difficulty7_image9.png","trial_type":"image-button-response","trial_index":48,"time_elapsed":92433,"internal_node_id":"0.0-2.0-0.46"},{"rt":1638,"stimulus":"images/Dog/With_Backgrounds/difficulty7_image3.png","response":4,"category":"Dog","background_difficulty":"7","image_path":"images/Dog/With_Backgrounds/difficulty7_image3.png","trial_type":"image-button-response","trial_index":49,"time_elapsed":94083,"internal_node_id":"0.0-2.0-0.47"},{"rt":1525,"stimulus":"images/Car/With_Backgrounds/difficulty2_image4.png","response":2,"category":"Car","background_difficulty":"2","image_path":"images/Car/With_Backgrounds/difficulty2_image4.png","trial_type":"image-button-response","trial_index":50,"time_elapsed":95619,"internal_node_id":"0.0-2.0-0.48"},{"rt":1421,"stimulus":"images/Tree/With_Backgrounds/difficulty1_image1.png","response":6,"category":"Tree","background_difficulty":"1","image_path":"images/Tree/With_Backgrounds/difficulty1_image1.png","trial_type":"image-button-response","trial_index":51,"time_elapsed":97050,"internal_node_id":"0.0-2.0-0.49"},{"rt":1522,"stimulus":"images/Cat/With_Backgrounds/difficulty7_image2.png","response":3,"category":"Cat","background_difficulty":"7","image_path":"images/Cat/With_Backgrounds/difficulty7_image2.png","trial_type":"image-button-response","trial_index":52,"time_elapsed":98583,"internal_node_id":"0.0-2.0-0.50"},{"rt":1539,"stimulus":"images/Dog/With_Backgrounds/difficulty0_image5.png","response":4,"category":"Dog","background_difficulty":"0","image_path":"images/Dog/With_Backgrounds/difficulty0_image5.png","trial_type":"image-button-response","trial_index":53,"time_elapsed":100133,"internal_node_id":"0.0-2.0-0.51"},{"rt":1825,"stimulus":"images/Boat/With_Backgrounds/difficulty8_image7.png","response":0,"category":"Boat","background_difficulty":"8","image_path":"images/Boat/With_Backgrounds/difficulty8_image7.png","trial_type":"image-button-response","trial_index":54,"time_elapsed":101970,"internal_node_id":"0.0-2.0-0.52"},{"rt":1270,"stimulus":"images/Human/With_Backgrounds/difficulty3_image1.png","response":5,"category":"Human","background_difficulty":"3","image_path":"images/Human/With_Backgrounds/difficulty3_image1.png","trial_type":"image-button-response","trial_index":55,"time_elapsed":103250,"internal_node_id":"0.0-2.0-0.53"},{"rt":1457,"stimulus":"images/Car/With_Backgrounds/difficulty7_image9.png","response":2,"category":"Car","background_difficulty":"7","image_path":"images/Car/With_Backgrounds/difficulty7_image9.png","trial_type":"image-button-response","trial_index":56,"time_elapsed":104717,"internal_node_id":"0.0-2.0-0.54"},{"rt":1305,"stimulus":"images/Human/With_Backgrounds/difficulty0_image3.png","response":5,"category":"Human","background_difficulty":"0","image_path":"images/Human/With_Backgrounds/difficulty0_image3.png","trial_type":"image-button-response","trial_index":57,"time_elapsed":106034,"internal_node_id":"0.0-2.0-0.55"},{"rt":1340,"stimulus":"images/Broccoli/With_Backgrounds/difficulty1_image9.png","response":1,"category":"Broccoli","background_difficulty":"1","image_path":"images/Broccoli/With_Backgrounds/difficulty1_image9.png","trial_type":"image-button-response","trial_index":58,"time_elapsed":107384,"internal_node_id":"0.0-2.0-0.56"},{"rt":1388,"stimulus":"images/Tree/With_Backgrounds/difficulty0_image5.png","response":6,"category":"Tree","background_difficulty":"0","image_path":"images/Tree/With_Backgrounds/difficulty0_image5.png","trial_type":"image-button-response","trial_index":59,"time_elapsed":108784,"internal_node_id":"0.0-2.0-0.57"},{"rt":1403,"stimulus":"images/Broccoli/With_Backgrounds/difficulty4_image2.png","response":1,"category":"Broccoli","background_difficulty":"4","image_path":"images/Broccoli/With_Backgrounds/difficulty4_image2.png","trial_type":"image-button-response","trial_index":60,"time_elapsed":110201,"internal_node_id":"0.0-2.0-0.58"},{"rt":1308,"stimulus":"images/Human/With_Backgrounds/difficulty1_image9.png","response":5,"category":"Human","background_difficulty":"1","image_path":"images/Human/With_Backgrounds/difficulty1_image9.png","trial_type":"image-button-response","trial_index":61,"time_elapsed":111520,"internal_node_id":"0.0-2.0-0.59"},{"rt":1886,"stimulus":"images/Tree/With_Backgrounds/difficulty8_image3.png","response":6,"category":"Tree","background_difficulty":"8","image_path":"images/Tree/With_Backgrounds/difficulty8_image3.png","trial_type":"image-button-response","trial_index":62,"time_elapsed":113417,"internal_node_id":"0.0-2.0-0.60"},{"rt":2673,"stimulus":"images/Boat/With_Backgrounds/difficulty3_image5.png","response":0,"category":"Boat","background_difficulty":"3","image_path":"images/Boat/With_Backgrounds/difficulty3_image5.png","trial_type":"image-button-response","trial_index":63,"time_elapsed":116101,"internal_node_id":"0.0-2.0-0.61"},{"rt":1676,"stimulus":"images/Cat/With_Backgrounds/difficulty4_image0.png","response":3,"category":"Cat","background_difficulty":"4","image_path":"images/Cat/With_Backgrounds/difficulty4_image0.png","trial_type":"image-button-response","trial_index":64,"time_elapsed":117788,"internal_node_id":"0.0-2.0-0.62"},{"rt":1621,"stimulus":"images/Car/With_Backgrounds/difficulty4_image1.png","response":2,"category":"Car","background_difficulty":"4","image_path":"images/Car/With_Backgrounds/difficulty4_image1.png","trial_type":"image-button-response","trial_index":65,"time_elapsed":119418,"internal_node_id":"0.0-2.0-0.63"},{"rt":1409,"stimulus":"images/Broccoli/With_Backgrounds/difficulty0_image0.png","response":1,"category":"Broccoli","background_difficulty":"0","image_path":"images/Broccoli/With_Backgrounds/difficulty0_image0.png","trial_type":"image-button-response","trial_index":66,"time_elapsed":120835,"internal_node_id":"0.0-2.0-0.64"},{"rt":2056,"stimulus":"images/Cat/With_Backgrounds/difficulty6_image3.png","response":3,"category":"Cat","background_difficulty":"6","image_path":"images/Cat/With_Backgrounds/difficulty6_image3.png","trial_type":"image-button-response","trial_index":67,"time_elapsed":122901,"internal_node_id":"0.0-2.0-0.65"},{"rt":1601,"stimulus":"images/Car/With_Backgrounds/difficulty6_image6.png","response":2,"category":"Car","background_difficulty":"6","image_path":"images/Car/With_Backgrounds/difficulty6_image6.png","trial_type":"image-button-response","trial_index":68,"time_elapsed":124513,"internal_node_id":"0.0-2.0-0.66"},{"rt":1820,"stimulus":"images/Other/With_Backgrounds/difficulty3_image7.png","response":7,"category":"Other","background_difficulty":"3","image_path":"images/Other/With_Backgrounds/difficulty3_image7.png","trial_type":"image-button-response","trial_index":69,"time_elapsed":126344,"internal_node_id":"0.0-2.0-0.67"},{"rt":1438,"stimulus":"images/Tree/With_Backgrounds/difficulty3_image9.png","response":6,"category":"Tree","background_difficulty":"3","image_path":"images/Tree/With_Backgrounds/difficulty3_image9.png","trial_type":"image-button-response","trial_index":70,"time_elapsed":127794,"internal_node_id":"0.0-2.0-0.68"},{"rt":1488,"stimulus":"images/Dog/With_Backgrounds/difficulty6_image2.png","response":4,"category":"Dog","background_difficulty":"6","image_path":"images/Dog/With_Backgrounds/difficulty6_image2.png","trial_type":"image-button-response","trial_index":71,"time_elapsed":129294,"internal_node_id":"0.0-2.0-0.69"},{"rt":1258,"stimulus":"images/Other/With_Backgrounds/difficulty7_image6.png","response":7,"category":"Other","background_difficulty":"7","image_path":"images/Other/With_Backgrounds/difficulty7_image6.png","trial_type":"image-button-response","trial_index":72,"time_elapsed":130564,"internal_node_id":"0.0-2.0-0.70"},{"rt":1602,"stimulus":"images/Dog/With_Backgrounds/difficulty8_image9.png","response":3,"category":"Dog","background_difficulty":"8","image_path":"images/Dog/With_Backgrounds/difficulty8_image9.png","trial_type":"image-button-response","trial_index":73,"time_elapsed":132177,"internal_node_id":"0.0-2.0-0.71"},{"rt":1695,"stimulus":["<h2>Press the button below to end experiment.</h2><p>Thank you for participating!</p>"],"response":0,"trial_type":"html-button-response","trial_index":74,"time_elapsed":133877,"internal_node_id":"0.0-3.0"}]