[{"success":true,"timeout":false,"failed_images":[],"failed_audio":[],"failed_video":[],"trial_type":"preload","trial_index":0,"time_elapsed":1703,"internal_node_id":"0.0-0.0"},{"rt":9724,"stimulus":["<h2>Noisy background image classification</h2><p>In this experiment you will briefly see images on top of colored squares of various sizes.</p><p>Your task is to report what each image is, selecting \"None of the Above\" if none of the given options are correct.</p> <p>The possible options are <strong>Boat</strong>, <strong>Broccoli</strong>, <strong>Car</strong>, <strong>Cat</strong>, <strong>Dog</strong>, <strong>Human</strong>, <strong>Tree</strong>, and <strong>None of the Above</strong>"],"response":0,"trial_type":"html-button-response","trial_index":1,"time_elapsed":11431,"internal_node_id":"0.0-1.0"},{"rt":2599,"stimulus":"images/Cat/With_Backgrounds/difficulty6_image4.png","response":3,"category":"Cat","background_difficulty":"6","image_path":"images/Cat/With_Backgrounds/difficulty6_image4.png","trial_type":"image-button-response","trial_index":2,"time_elapsed":14109,"internal_node_id":"0.0-2.0-0.0"},{"rt":1914,"stimulus":"images/Broccoli/With_Backgrounds/difficulty6_image4.png","response":1,"category":"Broccoli","background_difficulty":"6","image_path":"images/Broccoli/With_Backgrounds/difficulty6_image4.png","trial_type":"image-button-response","trial_index":3,"time_elapsed":16043,"internal_node_id":"0.0-2.0-0.1"},{"rt":1912,"stimulus":"images/Dog/With_Backgrounds/difficulty0_image3.png","response":4,"category":"Dog","background_difficulty":"0","image_path":"images/Dog/With_Backgrounds/difficulty0_image3.png","trial_type":"image-button-response","trial_index":4,"time_elapsed":17968,"internal_node_id":"0.0-2.0-0.2"},{"rt":2403,"stimulus":"images/Human/With_Backgrounds/difficulty7_image3.png","response":5,"category":"Human","background_difficulty":"7","image_path":"images/Human/With_Backgrounds/difficulty7_image3.png","trial_type":"image-button-response","trial_index":5,"time_elapsed":20386,"internal_node_id":"0.0-2.0-0.3"},{"rt":1619,"stimulus":"images/Cat/With_Backgrounds/difficulty0_image7.png","response":3,"category":"Cat","background_difficulty":"0","image_path":"images/Cat/With_Backgrounds/difficulty0_image7.png","trial_type":"image-button-response","trial_index":6,"time_elapsed":22021,"internal_node_id":"0.0-2.0-0.4"},{"rt":1636,"stimulus":"images/Broccoli/With_Backgrounds/difficulty0_image3.png","response":1,"category":"Broccoli","background_difficulty":"0","image_path":"images/Broccoli/With_Backgrounds/difficulty0_image3.png","trial_type":"image-button-response","trial_index":7,"time_elapsed":23670,"internal_node_id":"0.0-2.0-0.5"},{"rt":1965,"stimulus":"images/Car/With_Backgrounds/difficulty5_image3.png","response":2,"category":"Car","background_difficulty":"5","image_path":"images/Car/With_Backgrounds/difficulty5_image3.png","trial_type":"image-button-response","trial_index":8,"time_elapsed":25646,"internal_node_id":"0.0-2.0-0.6"},{"rt":1687,"stimulus":"images/Cat/With_Backgrounds/difficulty4_image8.png","response":3,"category":"Cat","background_difficulty":"4","image_path":"images/Cat/With_Backgrounds/difficulty4_image8.png","trial_type":"image-button-response","trial_index":9,"time_elapsed":27341,"internal_node_id":"0.0-2.0-0.7"},{"rt":1808,"stimulus":"images/Car/With_Backgrounds/difficulty4_image6.png","response":2,"category":"Car","background_difficulty":"4","image_path":"images/Car/With_Backgrounds/difficulty4_image6.png","trial_type":"image-button-response","trial_index":10,"time_elapsed":29164,"internal_node_id":"0.0-2.0-0.8"},{"rt":3639,"stimulus":"images/Other/With_Backgrounds/difficulty1_image8.png","response":7,"category":"Other","background_difficulty":"1","image_path":"images/Other/With_Backgrounds/difficulty1_image8.png","trial_type":"image-button-response","trial_index":11,"time_elapsed":32813,"internal_node_id":"0.0-2.0-0.9"},{"rt":1675,"stimulus":"images/Tree/With_Backgrounds/difficulty6_image2.png","response":6,"category":"Tree","background_difficulty":"6","image_path":"images/Tree/With_Backgrounds/difficulty6_image2.png","trial_type":"image-button-response","trial_index":12,"time_elapsed":34500,"internal_node_id":"0.0-2.0-0.10"},{"rt":1860,"stimulus":"images/Human/With_Backgrounds/difficulty5_image6.png","response":5,"category":"Human","background_difficulty":"5","image_path":"images/Human/With_Backgrounds/difficulty5_image6.png","trial_type":"image-button-response","trial_index":13,"time_elapsed":36373,"internal_node_id":"0.0-2.0-0.11"},{"rt":1688,"stimulus":"images/Car/With_Backgrounds/difficulty8_image2.png","response":2,"category":"Car","background_difficulty":"8","image_path":"images/Car/With_Backgrounds/difficulty8_image2.png","trial_type":"image-button-response","trial_index":14,"time_elapsed":38074,"internal_node_id":"0.0-2.0-0.12"},{"rt":1093,"stimulus":"images/Car/With_Backgrounds/difficulty7_image1.png","response":2,"category":"Car","background_difficulty":"7","image_path":"images/Car/With_Backgrounds/difficulty7_image1.png","trial_type":"image-button-response","trial_index":15,"time_elapsed":39179,"internal_node_id":"0.0-2.0-0.13"},{"rt":1659,"stimulus":"images/Human/With_Backgrounds/difficulty6_image9.png","response":5,"category":"Human","background_difficulty":"6","image_path":"images/Human/With_Backgrounds/difficulty6_image9.png","trial_type":"image-button-response","trial_index":16,"time_elapsed":40852,"internal_node_id":"0.0-2.0-0.14"},{"rt":1601,"stimulus":"images/Car/With_Backgrounds/difficulty6_image9.png","response":2,"category":"Car","background_difficulty":"6","image_path":"images/Car/With_Backgrounds/difficulty6_image9.png","trial_type":"image-button-response","trial_index":17,"time_elapsed":42464,"internal_node_id":"0.0-2.0-0.15"},{"rt":1711,"stimulus":"images/Broccoli/With_Backgrounds/difficulty2_image9.png","response":1,"category":"Broccoli","background_difficulty":"2","image_path":"images/Broccoli/With_Backgrounds/difficulty2_image9.png","trial_type":"image-button-response","trial_index":18,"time_elapsed":44188,"internal_node_id":"0.0-2.0-0.16"},{"rt":1837,"stimulus":"images/Dog/With_Backgrounds/difficulty8_image0.png","response":4,"category":"Dog","background_difficulty":"8","image_path":"images/Dog/With_Backgrounds/difficulty8_image0.png","trial_type":"image-button-response","trial_index":19,"time_elapsed":46039,"internal_node_id":"0.0-2.0-0.17"},{"rt":2259,"stimulus":"images/Tree/With_Backgrounds/difficulty3_image3.png","response":6,"category":"Tree","background_difficulty":"3","image_path":"images/Tree/With_Backgrounds/difficulty3_image3.png","trial_type":"image-button-response","trial_index":20,"time_elapsed":48308,"internal_node_id":"0.0-2.0-0.18"},{"rt":1965,"stimulus":"images/Broccoli/With_Backgrounds/difficulty7_image7.png","response":1,"category":"Broccoli","background_difficulty":"7","image_path":"images/Broccoli/With_Backgrounds/difficulty7_image7.png","trial_type":"image-button-response","trial_index":21,"time_elapsed":50286,"internal_node_id":"0.0-2.0-0.19"},{"rt":2346,"stimulus":"images/Other/With_Backgrounds/difficulty0_image7.png","response":7,"category":"Other","background_difficulty":"0","image_path":"images/Other/With_Backgrounds/difficulty0_image7.png","trial_type":"image-button-response","trial_index":22,"time_elapsed":52644,"internal_node_id":"0.0-2.0-0.20"},{"rt":1974,"stimulus":"images/Boat/With_Backgrounds/difficulty5_image5.png","response":0,"category":"Boat","background_difficulty":"5","image_path":"images/Boat/With_Backgrounds/difficulty5_image5.png","trial_type":"image-button-response","trial_index":23,"time_elapsed":54629,"internal_node_id":"0.0-2.0-0.21"},{"rt":1541,"stimulus":"images/Cat/With_Backgrounds/difficulty1_image0.png","response":3,"category":"Cat","background_difficulty":"1","image_path":"images/Cat/With_Backgrounds/difficulty1_image0.png","trial_type":"image-button-response","trial_index":24,"time_elapsed":56182,"internal_node_id":"0.0-2.0-0.22"},{"rt":1841,"stimulus":"images/Tree/With_Backgrounds/difficulty5_image4.png","response":6,"category":"Tree","background_difficulty":"5","image_path":"images/Tree/With_Backgrounds/difficulty5_image4.png","trial_type":"image-button-response","trial_index":25,"time_elapsed":58032,"internal_node_id":"0.0-2.0-0.23"},{"rt":1535,"stimulus":"images/Dog/With_Backgrounds/difficulty3_image2.png","response":4,"category":"Dog","background_difficulty":"3","image_path":"images/Dog/With_Backgrounds/difficulty3_image2.png","trial_type":"image-button-response","trial_index":26,"time_elapsed":59577,"internal_node_id":"0.0-2.0-0.24"},{"rt":1132,"stimulus":"images/Dog/With_Backgrounds/difficulty5_image8.png","response":4,"category":"Dog","background_difficulty":"5","image_path":"images/Dog/With_Backgrounds/difficulty5_image8.png","trial_type":"image-button-response","trial_index":27,"time_elapsed":60720,"internal_node_id":"0.0-2.0-0.25"},{"rt":1674,"stimulus":"images/Broccoli/With_Backgrounds/difficulty3_image1.png","response":1,"category":"Broccoli","background_difficulty":"3","image_path":"images/Broccoli/With_Backgrounds/difficulty3_image1.png","trial_type":"image-button-response","trial_index":28,"time_elapsed":62406,"internal_node_id":"0.0-2.0-0.26"},{"rt":1602,"stimulus":"images/Dog/With_Backgrounds/difficulty4_image9.png","response":4,"category":"Dog","background_difficulty":"4","image_path":"images/Dog/With_Backgrounds/difficulty4_image9.png","trial_type":"image-button-response","trial_index":29,"time_elapsed":64019,"internal_node_id":"0.0-2.0-0.27"},{"rt":2086,"stimulus":"images/Other/With_Backgrounds/difficulty4_image2.png","response":7,"category":"Other","background_difficulty":"4","image_path":"images/Other/With_Backgrounds/difficulty4_image2.png","trial_type":"image-button-response","trial_index":30,"time_elapsed":66116,"internal_node_id":"0.0-2.0-0.28"},{"rt":1505,"stimulus":"images/Dog/With_Backgrounds/difficulty1_image7.png","response":4,"category":"Dog","background_difficulty":"1","image_path":"images/Dog/With_Backgrounds/difficulty1_image7.png","trial_type":"image-button-response","trial_index":31,"time_elapsed":67632,"internal_node_id":"0.0-2.0-0.29"},{"rt":1812,"stimulus":"images/Broccoli/With_Backgrounds/difficulty8_image0.png","response":1,"category":"Broccoli","background_difficulty":"8","image_path":"images/Broccoli/With_Backgrounds/difficulty8_image0.png","trial_type":"image-button-response","trial_index":32,"time_elapsed":69460,"internal_node_id":"0.0-2.0-0.30"},{"rt":1851,"stimulus":"images/Boat/With_Backgrounds/difficulty8_image3.png","response":0,"category":"Boat","background_difficulty":"8","image_path":"images/Boat/With_Backgrounds/difficulty8_image3.png","trial_type":"image-button-response","trial_index":33,"time_elapsed":71327,"internal_node_id":"0.0-2.0-0.31"},{"rt":2162,"stimulus":"images/Other/With_Backgrounds/difficulty6_image6.png","response":7,"category":"Other","background_difficulty":"6","image_path":"images/Other/With_Backgrounds/difficulty6_image6.png","trial_type":"image-button-response","trial_index":34,"time_elapsed":73505,"internal_node_id":"0.0-2.0-0.32"},{"rt":2621,"stimulus":"images/Boat/With_Backgrounds/difficulty4_image6.png","response":0,"category":"Boat","background_difficulty":"4","image_path":"images/Boat/With_Backgrounds/difficulty4_image6.png","trial_type":"image-button-response","trial_index":35,"time_elapsed":76140,"internal_node_id":"0.0-2.0-0.33"},{"rt":2245,"stimulus":"images/Other/With_Backgrounds/difficulty2_image9.png","response":7,"category":"Other","background_difficulty":"2","image_path":"images/Other/With_Backgrounds/difficulty2_image9.png","trial_type":"image-button-response","trial_index":36,"time_elapsed":78401,"internal_node_id":"0.0-2.0-0.34"},{"rt":1647,"stimulus":"images/Human/With_Backgrounds/difficulty2_image7.png","response":5,"category":"Human","background_difficulty":"2","image_path":"images/Human/With_Backgrounds/difficulty2_image7.png","trial_type":"image-button-response","trial_index":37,"time_elapsed":80066,"internal_node_id":"0.0-2.0-0.35"},{"rt":1943,"stimulus":"images/Boat/With_Backgrounds/difficulty7_image4.png","response":0,"category":"Boat","background_difficulty":"7","image_path":"images/Boat/With_Backgrounds/difficulty7_image4.png","trial_type":"image-button-response","trial_index":38,"time_elapsed":82020,"internal_node_id":"0.0-2.0-0.36"},{"rt":1635,"stimulus":"images/Human/With_Backgrounds/difficulty3_image0.png","response":5,"category":"Human","background_difficulty":"3","image_path":"images/Human/With_Backgrounds/difficulty3_image0.png","trial_type":"image-button-response","trial_index":39,"time_elapsed":83669,"internal_node_id":"0.0-2.0-0.37"},{"rt":1440,"stimulus":"images/Other/With_Backgrounds/difficulty8_image5.png","response":7,"category":"Other","background_difficulty":"8","image_path":"images/Other/With_Backgrounds/difficulty8_image5.png","trial_type":"image-button-response","trial_index":40,"time_elapsed":85125,"internal_node_id":"0.0-2.0-0.38"},{"rt":1867,"stimulus":"images/Car/With_Backgrounds/difficulty3_image8.png","response":2,"category":"Car","background_difficulty":"3","image_path":"images/Car/With_Backgrounds/difficulty3_image8.png","trial_type":"image-button-response","trial_index":41,"time_elapsed":87005,"internal_node_id":"0.0-2.0-0.39"},{"rt":1501,"stimulus":"images/Dog/With_Backgrounds/difficulty7_image1.png","response":4,"category":"Dog","background_difficulty":"7","image_path":"images/Dog/With_Backgrounds/difficulty7_image1.png","trial_type":"image-button-response","trial_index":42,"time_elapsed":88520,"internal_node_id":"0.0-2.0-0.40"},{"rt":1555,"stimulus":"images/Other/With_Backgrounds/difficulty7_image0.png","response":7,"category":"Other","background_difficulty":"7","image_path":"images/Other/With_Backgrounds/difficulty7_image0.png","trial_type":"image-button-response","trial_index":43,"time_elapsed":90088,"internal_node_id":"0.0-2.0-0.41"},{"rt":2299,"stimulus":"images/Broccoli/With_Backgrounds/difficulty4_image8.png","response":1,"category":"Broccoli","background_difficulty":"4","image_path":"images/Broccoli/With_Backgrounds/difficulty4_image8.png","trial_type":"image-button-response","trial_index":44,"time_elapsed":92401,"internal_node_id":"0.0-2.0-0.42"},{"rt":1626,"stimulus":"images/Human/With_Backgrounds/difficulty8_image5.png","response":5,"category":"Human","background_difficulty":"8","image_path":"images/Human/With_Backgrounds/difficulty8_image5.png","trial_type":"image-button-response","trial_index":45,"time_elapsed":94043,"internal_node_id":"0.0-2.0-0.43"},{"rt":1930,"stimulus":"images/Cat/With_Backgrounds/difficulty2_image6.png","response":3,"category":"Cat","background_difficulty":"2","image_path":"images/Cat/With_Backgrounds/difficulty2_image6.png","trial_type":"image-button-response","trial_index":46,"time_elapsed":95984,"internal_node_id":"0.0-2.0-0.44"},{"rt":1144,"stimulus":"images/Cat/With_Backgrounds/difficulty3_image9.png","response":3,"category":"Cat","background_difficulty":"3","image_path":"images/Cat/With_Backgrounds/difficulty3_image9.png","trial_type":"image-button-response","trial_index":47,"time_elapsed":97140,"internal_node_id":"0.0-2.0-0.45"},{"rt":1828,"stimulus":"images/Tree/With_Backgrounds/difficulty8_image8.png","response":6,"category":"Tree","background_difficulty":"8","image_path":"images/Tree/With_Backgrounds/difficulty8_image8.png","trial_type":"image-button-response","trial_index":48,"time_elapsed":98983,"internal_node_id":"0.0-2.0-0.46"},{"rt":1199,"stimulus":"images/Tree/With_Backgrounds/difficulty1_image1.png","response":6,"category":"Tree","background_difficulty":"1","image_path":"images/Tree/With_Backgrounds/difficulty1_image1.png","trial_type":"image-button-response","trial_index":49,"time_elapsed":100192,"internal_node_id":"0.0-2.0-0.47"},{"rt":1279,"stimulus":"images/Human/With_Backgrounds/difficulty1_image2.png","response":5,"category":"Human","background_difficulty":"1","image_path":"images/Human/With_Backgrounds/difficulty1_image2.png","trial_type":"image-button-response","trial_index":50,"time_elapsed":101484,"internal_node_id":"0.0-2.0-0.48"},{"rt":1858,"stimulus":"images/Cat/With_Backgrounds/difficulty8_image5.png","response":3,"category":"Cat","background_difficulty":"8","image_path":"images/Cat/With_Backgrounds/difficulty8_image5.png","trial_type":"image-button-response","trial_index":51,"time_elapsed":103357,"internal_node_id":"0.0-2.0-0.49"},{"rt":1773,"stimulus":"images/Car/With_Backgrounds/difficulty0_image7.png","response":2,"category":"Car","background_difficulty":"0","image_path":"images/Car/With_Backgrounds/difficulty0_image7.png","trial_type":"image-button-response","trial_index":52,"time_elapsed":105141,"internal_node_id":"0.0-2.0-0.50"},{"rt":1818,"stimulus":"images/Boat/With_Backgrounds/difficulty1_image0.png","response":0,"category":"Boat","background_difficulty":"1","image_path":"images/Boat/With_Backgrounds/difficulty1_image0.png","trial_type":"image-button-response","trial_index":53,"time_elapsed":106969,"internal_node_id":"0.0-2.0-0.51"},{"rt":2047,"stimulus":"images/Human/With_Backgrounds/difficulty0_image1.png","response":5,"category":"Human","background_difficulty":"0","image_path":"images/Human/With_Backgrounds/difficulty0_image1.png","trial_type":"image-button-response","trial_index":54,"time_elapsed":109029,"internal_node_id":"0.0-2.0-0.52"},{"rt":1475,"stimulus":"images/Dog/With_Backgrounds/difficulty2_image5.png","response":4,"category":"Dog","background_difficulty":"2","image_path":"images/Dog/With_Backgrounds/difficulty2_image5.png","trial_type":"image-button-response","trial_index":55,"time_elapsed":110514,"internal_node_id":"0.0-2.0-0.53"},{"rt":1868,"stimulus":"images/Broccoli/With_Backgrounds/difficulty5_image6.png","response":1,"category":"Broccoli","background_difficulty":"5","image_path":"images/Broccoli/With_Backgrounds/difficulty5_image6.png","trial_type":"image-button-response","trial_index":56,"time_elapsed":112394,"internal_node_id":"0.0-2.0-0.54"},{"rt":1804,"stimulus":"images/Boat/With_Backgrounds/difficulty3_image8.png","response":0,"category":"Boat","background_difficulty":"3","image_path":"images/Boat/With_Backgrounds/difficulty3_image8.png","trial_type":"image-button-response","trial_index":57,"time_elapsed":114208,"internal_node_id":"0.0-2.0-0.55"},{"rt":1668,"stimulus":"images/Dog/With_Backgrounds/difficulty6_image6.png","response":4,"category":"Dog","background_difficulty":"6","image_path":"images/Dog/With_Backgrounds/difficulty6_image6.png","trial_type":"image-button-response","trial_index":58,"time_elapsed":115887,"internal_node_id":"0.0-2.0-0.56"},{"rt":1506,"stimulus":"images/Cat/With_Backgrounds/difficulty7_image2.png","response":3,"category":"Cat","background_difficulty":"7","image_path":"images/Cat/With_Backgrounds/difficulty7_image2.png","trial_type":"image-button-response","trial_index":59,"time_elapsed":117409,"internal_node_id":"0.0-2.0-0.57"},{"rt":1860,"stimulus":"images/Other/With_Backgrounds/difficulty5_image3.png","response":7,"category":"Other","background_difficulty":"5","image_path":"images/Other/With_Backgrounds/difficulty5_image3.png","trial_type":"image-button-response","trial_index":60,"time_elapsed":119283,"internal_node_id":"0.0-2.0-0.58"},{"rt":1733,"stimulus":"images/Broccoli/With_Backgrounds/difficulty1_image2.png","response":1,"category":"Broccoli","background_difficulty":"1","image_path":"images/Broccoli/With_Backgrounds/difficulty1_image2.png","trial_type":"image-button-response","trial_index":61,"time_elapsed":121029,"internal_node_id":"0.0-2.0-0.59"},{"rt":1632,"stimulus":"images/Car/With_Backgrounds/difficulty1_image0.png","response":2,"category":"Car","background_difficulty":"1","image_path":"images/Car/With_Backgrounds/difficulty1_image0.png","trial_type":"image-button-response","trial_index":62,"time_elapsed":122671,"internal_node_id":"0.0-2.0-0.60"},{"rt":1583,"stimulus":"images/Human/With_Backgrounds/difficulty4_image4.png","response":5,"category":"Human","background_difficulty":"4","image_path":"images/Human/With_Backgrounds/difficulty4_image4.png","trial_type":"image-button-response","trial_index":63,"time_elapsed":124268,"internal_node_id":"0.0-2.0-0.61"},{"rt":2049,"stimulus":"images/Boat/With_Backgrounds/difficulty0_image7.png","response":0,"category":"Boat","background_difficulty":"0","image_path":"images/Boat/With_Backgrounds/difficulty0_image7.png","trial_type":"image-button-response","trial_index":64,"time_elapsed":126328,"internal_node_id":"0.0-2.0-0.62"},{"rt":2212,"stimulus":"images/Other/With_Backgrounds/difficulty3_image1.png","response":7,"category":"Other","background_difficulty":"3","image_path":"images/Other/With_Backgrounds/difficulty3_image1.png","trial_type":"image-button-response","trial_index":65,"time_elapsed":128551,"internal_node_id":"0.0-2.0-0.63"},{"rt":1486,"stimulus":"images/Tree/With_Backgrounds/difficulty0_image5.png","response":6,"category":"Tree","background_difficulty":"0","image_path":"images/Tree/With_Backgrounds/difficulty0_image5.png","trial_type":"image-button-response","trial_index":66,"time_elapsed":130051,"internal_node_id":"0.0-2.0-0.64"},{"rt":1106,"stimulus":"images/Tree/With_Backgrounds/difficulty7_image0.png","response":6,"category":"Tree","background_difficulty":"7","image_path":"images/Tree/With_Backgrounds/difficulty7_image0.png","trial_type":"image-button-response","trial_index":67,"time_elapsed":131171,"internal_node_id":"0.0-2.0-0.65"},{"rt":1617,"stimulus":"images/Boat/With_Backgrounds/difficulty2_image2.png","response":0,"category":"Boat","background_difficulty":"2","image_path":"images/Boat/With_Backgrounds/difficulty2_image2.png","trial_type":"image-button-response","trial_index":68,"time_elapsed":132798,"internal_node_id":"0.0-2.0-0.66"},{"rt":1190,"stimulus":"images/Boat/With_Backgrounds/difficulty6_image9.png","response":0,"category":"Boat","background_difficulty":"6","image_path":"images/Boat/With_Backgrounds/difficulty6_image9.png","trial_type":"image-button-response","trial_index":69,"time_elapsed":133998,"internal_node_id":"0.0-2.0-0.67"},{"rt":1506,"stimulus":"images/Car/With_Backgrounds/difficulty2_image4.png","response":2,"category":"Car","background_difficulty":"2","image_path":"images/Car/With_Backgrounds/difficulty2_image4.png","trial_type":"image-button-response","trial_index":70,"time_elapsed":135514,"internal_node_id":"0.0-2.0-0.68"},{"rt":1879,"stimulus":"images/Tree/With_Backgrounds/difficulty4_image9.png","response":6,"category":"Tree","background_difficulty":"4","image_path":"images/Tree/With_Backgrounds/difficulty4_image9.png","trial_type":"image-button-response","trial_index":71,"time_elapsed":137409,"internal_node_id":"0.0-2.0-0.69"},{"rt":1135,"stimulus":"images/Tree/With_Backgrounds/difficulty2_image7.png","response":6,"category":"Tree","background_difficulty":"2","image_path":"images/Tree/With_Backgrounds/difficulty2_image7.png","trial_type":"image-button-response","trial_index":72,"time_elapsed":138560,"internal_node_id":"0.0-2.0-0.70"},{"rt":1631,"stimulus":"images/Cat/With_Backgrounds/difficulty5_image1.png","response":3,"category":"Cat","background_difficulty":"5","image_path":"images/Cat/With_Backgrounds/difficulty5_image1.png","trial_type":"image-button-response","trial_index":73,"time_elapsed":140208,"internal_node_id":"0.0-2.0-0.71"},{"rt":1502,"stimulus":["<h2>Press the button below to end experiment.</h2><p>Thank you for participating!</p>"],"response":0,"trial_type":"html-button-response","trial_index":74,"time_elapsed":141715,"internal_node_id":"0.0-3.0"}]