[{"success":true,"timeout":false,"failed_images":[],"failed_audio":[],"failed_video":[],"trial_type":"preload","trial_index":0,"time_elapsed":995,"internal_node_id":"0.0-0.0"},{"rt":62816,"stimulus":["<h2>Noisy background image classification</h2><p>In this experiment you will briefly see images on top of colored squares of various sizes.</p><p>Your task is to report what each image is, selecting \"None of the Above\" if none of the given options are correct.</p> <p>The possible options are <strong>Boat</strong>, <strong>Broccoli</strong>, <strong>Car</strong>, <strong>Cat</strong>, <strong>Dog</strong>, <strong>Human</strong>, <strong>Tree</strong>, and <strong>None of the Above</strong>"],"response":0,"trial_type":"html-button-response","trial_index":1,"time_elapsed":64524,"internal_node_id":"0.0-1.0"},{"rt":5038,"stimulus":"images/Other/With_Backgrounds/difficulty0_image0.png","response":7,"category":"Other","background_difficulty":"0","image_path":"images/Other/With_Backgrounds/difficulty0_image0.png","trial_type":"image-button-response","trial_index":2,"time_elapsed":69628,"internal_node_id":"0.0-2.0-0.0"},{"rt":2094,"stimulus":"images/Broccoli/With_Backgrounds/difficulty0_image2.png","response":1,"category":"Broccoli","background_difficulty":"0","image_path":"images/Broccoli/With_Backgrounds/difficulty0_image2.png","trial_type":"image-button-response","trial_index":3,"time_elapsed":71735,"internal_node_id":"0.0-2.0-0.1"},{"rt":1617,"stimulus":"images/Tree/With_Backgrounds/difficulty6_image5.png","response":6,"category":"Tree","background_difficulty":"6","image_path":"images/Tree/With_Backgrounds/difficulty6_image5.png","trial_type":"image-button-response","trial_index":4,"time_elapsed":73364,"internal_node_id":"0.0-2.0-0.2"},{"rt":2152,"stimulus":"images/Boat/With_Backgrounds/difficulty6_image7.png","response":0,"category":"Boat","background_difficulty":"6","image_path":"images/Boat/With_Backgrounds/difficulty6_image7.png","trial_type":"image-button-response","trial_index":5,"time_elapsed":75525,"internal_node_id":"0.0-2.0-0.3"},{"rt":1557,"stimulus":"images/Dog/With_Backgrounds/difficulty4_image0.png","response":4,"category":"Dog","background_difficulty":"4","image_path":"images/Dog/With_Backgrounds/difficulty4_image0.png","trial_type":"image-button-response","trial_index":6,"time_elapsed":77093,"internal_node_id":"0.0-2.0-0.4"},{"rt":1816,"stimulus":"images/Boat/With_Backgrounds/difficulty0_image1.png","response":0,"category":"Boat","background_difficulty":"0","image_path":"images/Boat/With_Backgrounds/difficulty0_image1.png","trial_type":"image-button-response","trial_index":7,"time_elapsed":78918,"internal_node_id":"0.0-2.0-0.5"},{"rt":1469,"stimulus":"images/Dog/With_Backgrounds/difficulty0_image6.png","response":4,"category":"Dog","background_difficulty":"0","image_path":"images/Dog/With_Backgrounds/difficulty0_image6.png","trial_type":"image-button-response","trial_index":8,"time_elapsed":80397,"internal_node_id":"0.0-2.0-0.6"},{"rt":1420,"stimulus":"images/Boat/With_Backgrounds/difficulty7_image2.png","response":0,"category":"Boat","background_difficulty":"7","image_path":"images/Boat/With_Backgrounds/difficulty7_image2.png","trial_type":"image-button-response","trial_index":9,"time_elapsed":81828,"internal_node_id":"0.0-2.0-0.7"},{"rt":1541,"stimulus":"images/Broccoli/With_Backgrounds/difficulty1_image9.png","response":1,"category":"Broccoli","background_difficulty":"1","image_path":"images/Broccoli/With_Backgrounds/difficulty1_image9.png","trial_type":"image-button-response","trial_index":10,"time_elapsed":83377,"internal_node_id":"0.0-2.0-0.8"},{"rt":1369,"stimulus":"images/Dog/With_Backgrounds/difficulty1_image3.png","response":4,"category":"Dog","background_difficulty":"1","image_path":"images/Dog/With_Backgrounds/difficulty1_image3.png","trial_type":"image-button-response","trial_index":11,"time_elapsed":84755,"internal_node_id":"0.0-2.0-0.9"},{"rt":1318,"stimulus":"images/Cat/With_Backgrounds/difficulty8_image9.png","response":3,"category":"Cat","background_difficulty":"8","image_path":"images/Cat/With_Backgrounds/difficulty8_image9.png","trial_type":"image-button-response","trial_index":12,"time_elapsed":86085,"internal_node_id":"0.0-2.0-0.10"},{"rt":1521,"stimulus":"images/Broccoli/With_Backgrounds/difficulty2_image5.png","response":1,"category":"Broccoli","background_difficulty":"2","image_path":"images/Broccoli/With_Backgrounds/difficulty2_image5.png","trial_type":"image-button-response","trial_index":13,"time_elapsed":87616,"internal_node_id":"0.0-2.0-0.11"},{"rt":1340,"stimulus":"images/Tree/With_Backgrounds/difficulty4_image3.png","response":6,"category":"Tree","background_difficulty":"4","image_path":"images/Tree/With_Backgrounds/difficulty4_image3.png","trial_type":"image-button-response","trial_index":14,"time_elapsed":88965,"internal_node_id":"0.0-2.0-0.12"},{"rt":1454,"stimulus":"images/Boat/With_Backgrounds/difficulty4_image0.png","response":0,"category":"Boat","background_difficulty":"4","image_path":"images/Boat/With_Backgrounds/difficulty4_image0.png","trial_type":"image-button-response","trial_index":15,"time_elapsed":90427,"internal_node_id":"0.0-2.0-0.13"},{"rt":1819,"stimulus":"images/Cat/With_Backgrounds/difficulty2_image2.png","response":3,"category":"Cat","background_difficulty":"2","image_path":"images/Cat/With_Backgrounds/difficulty2_image2.png","trial_type":"image-button-response","trial_index":16,"time_elapsed":92258,"internal_node_id":"0.0-2.0-0.14"},{"rt":1583,"stimulus":"images/Human/With_Backgrounds/difficulty4_image0.png","response":5,"category":"Human","background_difficulty":"4","image_path":"images/Human/With_Backgrounds/difficulty4_image0.png","trial_type":"image-button-response","trial_index":17,"time_elapsed":93851,"internal_node_id":"0.0-2.0-0.15"},{"rt":1421,"stimulus":"images/Boat/With_Backgrounds/difficulty3_image4.png","response":0,"category":"Boat","background_difficulty":"3","image_path":"images/Boat/With_Backgrounds/difficulty3_image4.png","trial_type":"image-button-response","trial_index":18,"time_elapsed":95281,"internal_node_id":"0.0-2.0-0.16"},{"rt":1954,"stimulus":"images/Other/With_Backgrounds/difficulty2_image8.png","response":7,"category":"Other","background_difficulty":"2","image_path":"images/Other/With_Backgrounds/difficulty2_image8.png","trial_type":"image-button-response","trial_index":19,"time_elapsed":97243,"internal_node_id":"0.0-2.0-0.17"},{"rt":1619,"stimulus":"images/Cat/With_Backgrounds/difficulty1_image5.png","response":3,"category":"Cat","background_difficulty":"1","image_path":"images/Cat/With_Backgrounds/difficulty1_image5.png","trial_type":"image-button-response","trial_index":20,"time_elapsed":98872,"internal_node_id":"0.0-2.0-0.18"},{"rt":1541,"stimulus":"images/Tree/With_Backgrounds/difficulty1_image2.png","response":6,"category":"Tree","background_difficulty":"1","image_path":"images/Tree/With_Backgrounds/difficulty1_image2.png","trial_type":"image-button-response","trial_index":21,"time_elapsed":100422,"internal_node_id":"0.0-2.0-0.19"},{"rt":1535,"stimulus":"images/Cat/With_Backgrounds/difficulty3_image6.png","response":3,"category":"Cat","background_difficulty":"3","image_path":"images/Cat/With_Backgrounds/difficulty3_image6.png","trial_type":"image-button-response","trial_index":22,"time_elapsed":101965,"internal_node_id":"0.0-2.0-0.20"},{"rt":1324,"stimulus":"images/Cat/With_Backgrounds/difficulty0_image0.png","response":3,"category":"Cat","background_difficulty":"0","image_path":"images/Cat/With_Backgrounds/difficulty0_image0.png","trial_type":"image-button-response","trial_index":23,"time_elapsed":103298,"internal_node_id":"0.0-2.0-0.21"},{"rt":1534,"stimulus":"images/Tree/With_Backgrounds/difficulty2_image6.png","response":6,"category":"Tree","background_difficulty":"2","image_path":"images/Tree/With_Backgrounds/difficulty2_image6.png","trial_type":"image-button-response","trial_index":24,"time_elapsed":104842,"internal_node_id":"0.0-2.0-0.22"},{"rt":1770,"stimulus":"images/Car/With_Backgrounds/difficulty1_image8.png","response":2,"category":"Car","background_difficulty":"1","image_path":"images/Car/With_Backgrounds/difficulty1_image8.png","trial_type":"image-button-response","trial_index":25,"time_elapsed":106622,"internal_node_id":"0.0-2.0-0.23"},{"rt":1851,"stimulus":"images/Other/With_Backgrounds/difficulty8_image3.png","response":7,"category":"Other","background_difficulty":"8","image_path":"images/Other/With_Backgrounds/difficulty8_image3.png","trial_type":"image-button-response","trial_index":26,"time_elapsed":108484,"internal_node_id":"0.0-2.0-0.24"},{"rt":1470,"stimulus":"images/Broccoli/With_Backgrounds/difficulty7_image7.png","response":1,"category":"Broccoli","background_difficulty":"7","image_path":"images/Broccoli/With_Backgrounds/difficulty7_image7.png","trial_type":"image-button-response","trial_index":27,"time_elapsed":109963,"internal_node_id":"0.0-2.0-0.25"},{"rt":1421,"stimulus":"images/Human/With_Backgrounds/difficulty3_image5.png","response":5,"category":"Human","background_difficulty":"3","image_path":"images/Human/With_Backgrounds/difficulty3_image5.png","trial_type":"image-button-response","trial_index":28,"time_elapsed":111396,"internal_node_id":"0.0-2.0-0.26"},{"rt":1534,"stimulus":"images/Cat/With_Backgrounds/difficulty6_image3.png","response":3,"category":"Cat","background_difficulty":"6","image_path":"images/Cat/With_Backgrounds/difficulty6_image3.png","trial_type":"image-button-response","trial_index":29,"time_elapsed":112939,"internal_node_id":"0.0-2.0-0.27"},{"rt":1451,"stimulus":"images/Human/With_Backgrounds/difficulty8_image9.png","response":5,"category":"Human","background_difficulty":"8","image_path":"images/Human/With_Backgrounds/difficulty8_image9.png","trial_type":"image-button-response","trial_index":30,"time_elapsed":114403,"internal_node_id":"0.0-2.0-0.28"},{"rt":1908,"stimulus":"images/Boat/With_Backgrounds/difficulty1_image3.png","response":0,"category":"Boat","background_difficulty":"1","image_path":"images/Boat/With_Backgrounds/difficulty1_image3.png","trial_type":"image-button-response","trial_index":31,"time_elapsed":116319,"internal_node_id":"0.0-2.0-0.29"},{"rt":1866,"stimulus":"images/Car/With_Backgrounds/difficulty7_image7.png","response":2,"category":"Car","background_difficulty":"7","image_path":"images/Car/With_Backgrounds/difficulty7_image7.png","trial_type":"image-button-response","trial_index":32,"time_elapsed":118194,"internal_node_id":"0.0-2.0-0.30"},{"rt":1552,"stimulus":"images/Other/With_Backgrounds/difficulty4_image2.png","response":7,"category":"Other","background_difficulty":"4","image_path":"images/Other/With_Backgrounds/difficulty4_image2.png","trial_type":"image-button-response","trial_index":33,"time_elapsed":119756,"internal_node_id":"0.0-2.0-0.31"},{"rt":1559,"stimulus":"images/Cat/With_Backgrounds/difficulty5_image7.png","response":3,"category":"Cat","background_difficulty":"5","image_path":"images/Cat/With_Backgrounds/difficulty5_image7.png","trial_type":"image-button-response","trial_index":34,"time_elapsed":121320,"internal_node_id":"0.0-2.0-0.32"},{"rt":1367,"stimulus":"images/Dog/With_Backgrounds/difficulty8_image9.png","response":4,"category":"Dog","background_difficulty":"8","image_path":"images/Dog/With_Backgrounds/difficulty8_image9.png","trial_type":"image-button-response","trial_index":35,"time_elapsed":122700,"internal_node_id":"0.0-2.0-0.33"},{"rt":1521,"stimulus":"images/Other/With_Backgrounds/difficulty7_image5.png","response":7,"category":"Other","background_difficulty":"7","image_path":"images/Other/With_Backgrounds/difficulty7_image5.png","trial_type":"image-button-response","trial_index":36,"time_elapsed":124233,"internal_node_id":"0.0-2.0-0.34"},{"rt":1540,"stimulus":"images/Broccoli/With_Backgrounds/difficulty6_image8.png","response":1,"category":"Broccoli","background_difficulty":"6","image_path":"images/Broccoli/With_Backgrounds/difficulty6_image8.png","trial_type":"image-button-response","trial_index":37,"time_elapsed":125781,"internal_node_id":"0.0-2.0-0.35"},{"rt":1830,"stimulus":"images/Other/With_Backgrounds/difficulty5_image1.png","response":7,"category":"Other","background_difficulty":"5","image_path":"images/Other/With_Backgrounds/difficulty5_image1.png","trial_type":"image-button-response","trial_index":38,"time_elapsed":127622,"internal_node_id":"0.0-2.0-0.36"},{"rt":1662,"stimulus":"images/Car/With_Backgrounds/difficulty5_image4.png","response":2,"category":"Car","background_difficulty":"5","image_path":"images/Car/With_Backgrounds/difficulty5_image4.png","trial_type":"image-button-response","trial_index":39,"time_elapsed":129293,"internal_node_id":"0.0-2.0-0.37"},{"rt":2910,"stimulus":"images/Broccoli/With_Backgrounds/difficulty3_image0.png","response":6,"category":"Broccoli","background_difficulty":"3","image_path":"images/Broccoli/With_Backgrounds/difficulty3_image0.png","trial_type":"image-button-response","trial_index":40,"time_elapsed":132211,"internal_node_id":"0.0-2.0-0.38"},{"rt":1319,"stimulus":"images/Human/With_Backgrounds/difficulty5_image6.png","response":5,"category":"Human","background_difficulty":"5","image_path":"images/Human/With_Backgrounds/difficulty5_image6.png","trial_type":"image-button-response","trial_index":41,"time_elapsed":133539,"internal_node_id":"0.0-2.0-0.39"},{"rt":1359,"stimulus":"images/Dog/With_Backgrounds/difficulty6_image5.png","response":4,"category":"Dog","background_difficulty":"6","image_path":"images/Dog/With_Backgrounds/difficulty6_image5.png","trial_type":"image-button-response","trial_index":42,"time_elapsed":134904,"internal_node_id":"0.0-2.0-0.40"},{"rt":1675,"stimulus":"images/Car/With_Backgrounds/difficulty0_image5.png","response":2,"category":"Car","background_difficulty":"0","image_path":"images/Car/With_Backgrounds/difficulty0_image5.png","trial_type":"image-button-response","trial_index":43,"time_elapsed":136589,"internal_node_id":"0.0-2.0-0.41"},{"rt":1468,"stimulus":"images/Car/With_Backgrounds/difficulty6_image2.png","response":2,"category":"Car","background_difficulty":"6","image_path":"images/Car/With_Backgrounds/difficulty6_image2.png","trial_type":"image-button-response","trial_index":44,"time_elapsed":138066,"internal_node_id":"0.0-2.0-0.42"},{"rt":1334,"stimulus":"images/Other/With_Backgrounds/difficulty1_image7.png","response":7,"category":"Other","background_difficulty":"1","image_path":"images/Other/With_Backgrounds/difficulty1_image7.png","trial_type":"image-button-response","trial_index":45,"time_elapsed":139411,"internal_node_id":"0.0-2.0-0.43"},{"rt":1370,"stimulus":"images/Dog/With_Backgrounds/difficulty5_image4.png","response":4,"category":"Dog","background_difficulty":"5","image_path":"images/Dog/With_Backgrounds/difficulty5_image4.png","trial_type":"image-button-response","trial_index":46,"time_elapsed":140790,"internal_node_id":"0.0-2.0-0.44"},{"rt":2139,"stimulus":"images/Car/With_Backgrounds/difficulty4_image3.png","response":2,"category":"Car","background_difficulty":"4","image_path":"images/Car/With_Backgrounds/difficulty4_image3.png","trial_type":"image-button-response","trial_index":47,"time_elapsed":142938,"internal_node_id":"0.0-2.0-0.45"},{"rt":1403,"stimulus":"images/Tree/With_Backgrounds/difficulty0_image4.png","response":6,"category":"Tree","background_difficulty":"0","image_path":"images/Tree/With_Backgrounds/difficulty0_image4.png","trial_type":"image-button-response","trial_index":48,"time_elapsed":144349,"internal_node_id":"0.0-2.0-0.46"},{"rt":1221,"stimulus":"images/Human/With_Backgrounds/difficulty2_image3.png","response":5,"category":"Human","background_difficulty":"2","image_path":"images/Human/With_Backgrounds/difficulty2_image3.png","trial_type":"image-button-response","trial_index":49,"time_elapsed":145579,"internal_node_id":"0.0-2.0-0.47"},{"rt":1069,"stimulus":"images/Human/With_Backgrounds/difficulty6_image4.png","response":5,"category":"Human","background_difficulty":"6","image_path":"images/Human/With_Backgrounds/difficulty6_image4.png","trial_type":"image-button-response","trial_index":50,"time_elapsed":146660,"internal_node_id":"0.0-2.0-0.48"},{"rt":1294,"stimulus":"images/Car/With_Backgrounds/difficulty2_image1.png","response":2,"category":"Car","background_difficulty":"2","image_path":"images/Car/With_Backgrounds/difficulty2_image1.png","trial_type":"image-button-response","trial_index":51,"time_elapsed":147963,"internal_node_id":"0.0-2.0-0.49"},{"rt":1254,"stimulus":"images/Dog/With_Backgrounds/difficulty3_image7.png","response":4,"category":"Dog","background_difficulty":"3","image_path":"images/Dog/With_Backgrounds/difficulty3_image7.png","trial_type":"image-button-response","trial_index":52,"time_elapsed":149226,"internal_node_id":"0.0-2.0-0.50"},{"rt":1237,"stimulus":"images/Other/With_Backgrounds/difficulty3_image9.png","response":7,"category":"Other","background_difficulty":"3","image_path":"images/Other/With_Backgrounds/difficulty3_image9.png","trial_type":"image-button-response","trial_index":53,"time_elapsed":150471,"internal_node_id":"0.0-2.0-0.51"},{"rt":2555,"stimulus":"images/Boat/With_Backgrounds/difficulty2_image5.png","response":0,"category":"Boat","background_difficulty":"2","image_path":"images/Boat/With_Backgrounds/difficulty2_image5.png","trial_type":"image-button-response","trial_index":54,"time_elapsed":153035,"internal_node_id":"0.0-2.0-0.52"},{"rt":1347,"stimulus":"images/Dog/With_Backgrounds/difficulty7_image1.png","response":4,"category":"Dog","background_difficulty":"7","image_path":"images/Dog/With_Backgrounds/difficulty7_image1.png","trial_type":"image-button-response","trial_index":55,"time_elapsed":154394,"internal_node_id":"0.0-2.0-0.53"},{"rt":1458,"stimulus":"images/Boat/With_Backgrounds/difficulty8_image9.png","response":0,"category":"Boat","background_difficulty":"8","image_path":"images/Boat/With_Backgrounds/difficulty8_image9.png","trial_type":"image-button-response","trial_index":56,"time_elapsed":155864,"internal_node_id":"0.0-2.0-0.54"},{"rt":1362,"stimulus":"images/Tree/With_Backgrounds/difficulty5_image8.png","response":6,"category":"Tree","background_difficulty":"5","image_path":"images/Tree/With_Backgrounds/difficulty5_image8.png","trial_type":"image-button-response","trial_index":57,"time_elapsed":157235,"internal_node_id":"0.0-2.0-0.55"},{"rt":1472,"stimulus":"images/Car/With_Backgrounds/difficulty3_image0.png","response":2,"category":"Car","background_difficulty":"3","image_path":"images/Car/With_Backgrounds/difficulty3_image0.png","trial_type":"image-button-response","trial_index":58,"time_elapsed":158715,"internal_node_id":"0.0-2.0-0.56"},{"rt":1204,"stimulus":"images/Tree/With_Backgrounds/difficulty3_image0.png","response":6,"category":"Tree","background_difficulty":"3","image_path":"images/Tree/With_Backgrounds/difficulty3_image0.png","trial_type":"image-button-response","trial_index":59,"time_elapsed":159929,"internal_node_id":"0.0-2.0-0.57"},{"rt":1153,"stimulus":"images/Human/With_Backgrounds/difficulty0_image8.png","response":5,"category":"Human","background_difficulty":"0","image_path":"images/Human/With_Backgrounds/difficulty0_image8.png","trial_type":"image-button-response","trial_index":60,"time_elapsed":161093,"internal_node_id":"0.0-2.0-0.58"},{"rt":1320,"stimulus":"images/Tree/With_Backgrounds/difficulty7_image9.png","response":6,"category":"Tree","background_difficulty":"7","image_path":"images/Tree/With_Backgrounds/difficulty7_image9.png","trial_type":"image-button-response","trial_index":61,"time_elapsed":162423,"internal_node_id":"0.0-2.0-0.59"},{"rt":1571,"stimulus":"images/Human/With_Backgrounds/difficulty7_image2.png","response":5,"category":"Human","background_difficulty":"7","image_path":"images/Human/With_Backgrounds/difficulty7_image2.png","trial_type":"image-button-response","trial_index":62,"time_elapsed":164006,"internal_node_id":"0.0-2.0-0.60"},{"rt":1354,"stimulus":"images/Cat/With_Backgrounds/difficulty7_image8.png","response":3,"category":"Cat","background_difficulty":"7","image_path":"images/Cat/With_Backgrounds/difficulty7_image8.png","trial_type":"image-button-response","trial_index":63,"time_elapsed":165371,"internal_node_id":"0.0-2.0-0.61"},{"rt":1399,"stimulus":"images/Broccoli/With_Backgrounds/difficulty4_image4.png","response":1,"category":"Broccoli","background_difficulty":"4","image_path":"images/Broccoli/With_Backgrounds/difficulty4_image4.png","trial_type":"image-button-response","trial_index":64,"time_elapsed":166781,"internal_node_id":"0.0-2.0-0.62"},{"rt":1216,"stimulus":"images/Human/With_Backgrounds/difficulty1_image7.png","response":5,"category":"Human","background_difficulty":"1","image_path":"images/Human/With_Backgrounds/difficulty1_image7.png","trial_type":"image-button-response","trial_index":65,"time_elapsed":168009,"internal_node_id":"0.0-2.0-0.63"},{"rt":1538,"stimulus":"images/Car/With_Backgrounds/difficulty8_image6.png","response":2,"category":"Car","background_difficulty":"8","image_path":"images/Car/With_Backgrounds/difficulty8_image6.png","trial_type":"image-button-response","trial_index":66,"time_elapsed":169559,"internal_node_id":"0.0-2.0-0.64"},{"rt":1284,"stimulus":"images/Tree/With_Backgrounds/difficulty8_image7.png","response":6,"category":"Tree","background_difficulty":"8","image_path":"images/Tree/With_Backgrounds/difficulty8_image7.png","trial_type":"image-button-response","trial_index":67,"time_elapsed":170853,"internal_node_id":"0.0-2.0-0.65"},{"rt":1359,"stimulus":"images/Broccoli/With_Backgrounds/difficulty5_image3.png","response":1,"category":"Broccoli","background_difficulty":"5","image_path":"images/Broccoli/With_Backgrounds/difficulty5_image3.png","trial_type":"image-button-response","trial_index":68,"time_elapsed":172222,"internal_node_id":"0.0-2.0-0.66"},{"rt":1168,"stimulus":"images/Broccoli/With_Backgrounds/difficulty8_image6.png","response":1,"category":"Broccoli","background_difficulty":"8","image_path":"images/Broccoli/With_Backgrounds/difficulty8_image6.png","trial_type":"image-button-response","trial_index":69,"time_elapsed":173403,"internal_node_id":"0.0-2.0-0.67"},{"rt":1584,"stimulus":"images/Other/With_Backgrounds/difficulty6_image4.png","response":7,"category":"Other","background_difficulty":"6","image_path":"images/Other/With_Backgrounds/difficulty6_image4.png","trial_type":"image-button-response","trial_index":70,"time_elapsed":174997,"internal_node_id":"0.0-2.0-0.68"},{"rt":1384,"stimulus":"images/Dog/With_Backgrounds/difficulty2_image2.png","response":4,"category":"Dog","background_difficulty":"2","image_path":"images/Dog/With_Backgrounds/difficulty2_image2.png","trial_type":"image-button-response","trial_index":71,"time_elapsed":176391,"internal_node_id":"0.0-2.0-0.69"},{"rt":1339,"stimulus":"images/Boat/With_Backgrounds/difficulty5_image6.png","response":0,"category":"Boat","background_difficulty":"5","image_path":"images/Boat/With_Backgrounds/difficulty5_image6.png","trial_type":"image-button-response","trial_index":72,"time_elapsed":177738,"internal_node_id":"0.0-2.0-0.70"},{"rt":1354,"stimulus":"images/Cat/With_Backgrounds/difficulty4_image4.png","response":3,"category":"Cat","background_difficulty":"4","image_path":"images/Cat/With_Backgrounds/difficulty4_image4.png","trial_type":"image-button-response","trial_index":73,"time_elapsed":179101,"internal_node_id":"0.0-2.0-0.71"},{"rt":1310,"stimulus":["<h2>Press the button below to end experiment.</h2><p>Thank you for participating!</p>"],"response":0,"trial_type":"html-button-response","trial_index":74,"time_elapsed":180415,"internal_node_id":"0.0-3.0"}]