[{"success":true,"timeout":false,"failed_images":[],"failed_audio":[],"failed_video":[],"trial_type":"preload","trial_index":0,"time_elapsed":3477,"internal_node_id":"0.0-0.0"},{"rt":43263,"stimulus":["<h2>Noisy background image classification</h2><p>In this experiment you will briefly see images on top of colored squares of various sizes.</p><p>Your task is to report what each image is, selecting \"None of the Above\" if none of the given options are correct.</p> <p>The possible options are <strong>Boat</strong>, <strong>Broccoli</strong>, <strong>Car</strong>, <strong>Cat</strong>, <strong>Dog</strong>, <strong>Human</strong>, <strong>Tree</strong>, and <strong>None of the Above</strong>"],"response":0,"trial_type":"html-button-response","trial_index":1,"time_elapsed":46739,"internal_node_id":"0.0-1.0"},{"rt":2792,"stimulus":"images/Human/With_Backgrounds/difficulty5_image3.png","response":5,"category":"Human","background_difficulty":"5","image_path":"images/Human/With_Backgrounds/difficulty5_image3.png","trial_type":"image-button-response","trial_index":2,"time_elapsed":49540,"internal_node_id":"0.0-2.0-0.0"},{"rt":1562,"stimulus":"images/Car/With_Backgrounds/difficulty1_image8.png","response":2,"category":"Car","background_difficulty":"1","image_path":"images/Car/With_Backgrounds/difficulty1_image8.png","trial_type":"image-button-response","trial_index":3,"time_elapsed":51104,"internal_node_id":"0.0-2.0-0.1"},{"rt":2249,"stimulus":"images/Tree/With_Backgrounds/difficulty8_image6.png","response":6,"category":"Tree","background_difficulty":"8","image_path":"images/Tree/With_Backgrounds/difficulty8_image6.png","trial_type":"image-button-response","trial_index":4,"time_elapsed":53355,"internal_node_id":"0.0-2.0-0.2"},{"rt":1416,"stimulus":"images/Car/With_Backgrounds/difficulty8_image2.png","response":2,"category":"Car","background_difficulty":"8","image_path":"images/Car/With_Backgrounds/difficulty8_image2.png","trial_type":"image-button-response","trial_index":5,"time_elapsed":54773,"internal_node_id":"0.0-2.0-0.3"},{"rt":1031,"stimulus":"images/Cat/With_Backgrounds/difficulty5_image6.png","response":3,"category":"Cat","background_difficulty":"5","image_path":"images/Cat/With_Backgrounds/difficulty5_image6.png","trial_type":"image-button-response","trial_index":6,"time_elapsed":55805,"internal_node_id":"0.0-2.0-0.4"},{"rt":1047,"stimulus":"images/Human/With_Backgrounds/difficulty1_image2.png","response":5,"category":"Human","background_difficulty":"1","image_path":"images/Human/With_Backgrounds/difficulty1_image2.png","trial_type":"image-button-response","trial_index":7,"time_elapsed":56854,"internal_node_id":"0.0-2.0-0.5"},{"rt":1717,"stimulus":"images/Broccoli/With_Backgrounds/difficulty1_image3.png","response":1,"category":"Broccoli","background_difficulty":"1","image_path":"images/Broccoli/With_Backgrounds/difficulty1_image3.png","trial_type":"image-button-response","trial_index":8,"time_elapsed":58574,"internal_node_id":"0.0-2.0-0.6"},{"rt":2496,"stimulus":"images/Other/With_Backgrounds/difficulty2_image7.png","response":7,"category":"Other","background_difficulty":"2","image_path":"images/Other/With_Backgrounds/difficulty2_image7.png","trial_type":"image-button-response","trial_index":9,"time_elapsed":61071,"internal_node_id":"0.0-2.0-0.7"},{"rt":1531,"stimulus":"images/Broccoli/With_Backgrounds/difficulty3_image7.png","response":1,"category":"Broccoli","background_difficulty":"3","image_path":"images/Broccoli/With_Backgrounds/difficulty3_image7.png","trial_type":"image-button-response","trial_index":10,"time_elapsed":62605,"internal_node_id":"0.0-2.0-0.8"},{"rt":1231,"stimulus":"images/Broccoli/With_Backgrounds/difficulty8_image0.png","response":1,"category":"Broccoli","background_difficulty":"8","image_path":"images/Broccoli/With_Backgrounds/difficulty8_image0.png","trial_type":"image-button-response","trial_index":11,"time_elapsed":63838,"internal_node_id":"0.0-2.0-0.9"},{"rt":1698,"stimulus":"images/Other/With_Backgrounds/difficulty1_image8.png","response":7,"category":"Other","background_difficulty":"1","image_path":"images/Other/With_Backgrounds/difficulty1_image8.png","trial_type":"image-button-response","trial_index":12,"time_elapsed":65538,"internal_node_id":"0.0-2.0-0.10"},{"rt":1298,"stimulus":"images/Dog/With_Backgrounds/difficulty4_image2.png","response":4,"category":"Dog","background_difficulty":"4","image_path":"images/Dog/With_Backgrounds/difficulty4_image2.png","trial_type":"image-button-response","trial_index":13,"time_elapsed":66838,"internal_node_id":"0.0-2.0-0.11"},{"rt":2031,"stimulus":"images/Tree/With_Backgrounds/difficulty7_image1.png","response":6,"category":"Tree","background_difficulty":"7","image_path":"images/Tree/With_Backgrounds/difficulty7_image1.png","trial_type":"image-button-response","trial_index":14,"time_elapsed":68871,"internal_node_id":"0.0-2.0-0.12"},{"rt":1382,"stimulus":"images/Human/With_Backgrounds/difficulty0_image0.png","response":5,"category":"Human","background_difficulty":"0","image_path":"images/Human/With_Backgrounds/difficulty0_image0.png","trial_type":"image-button-response","trial_index":15,"time_elapsed":70255,"internal_node_id":"0.0-2.0-0.13"},{"rt":1549,"stimulus":"images/Boat/With_Backgrounds/difficulty4_image5.png","response":0,"category":"Boat","background_difficulty":"4","image_path":"images/Boat/With_Backgrounds/difficulty4_image5.png","trial_type":"image-button-response","trial_index":16,"time_elapsed":71807,"internal_node_id":"0.0-2.0-0.14"},{"rt":1729,"stimulus":"images/Tree/With_Backgrounds/difficulty4_image0.png","response":6,"category":"Tree","background_difficulty":"4","image_path":"images/Tree/With_Backgrounds/difficulty4_image0.png","trial_type":"image-button-response","trial_index":17,"time_elapsed":73538,"internal_node_id":"0.0-2.0-0.15"},{"rt":1148,"stimulus":"images/Car/With_Backgrounds/difficulty7_image3.png","response":2,"category":"Car","background_difficulty":"7","image_path":"images/Car/With_Backgrounds/difficulty7_image3.png","trial_type":"image-button-response","trial_index":18,"time_elapsed":74688,"internal_node_id":"0.0-2.0-0.16"},{"rt":1031,"stimulus":"images/Cat/With_Backgrounds/difficulty6_image5.png","response":3,"category":"Cat","background_difficulty":"6","image_path":"images/Cat/With_Backgrounds/difficulty6_image5.png","trial_type":"image-button-response","trial_index":19,"time_elapsed":75720,"internal_node_id":"0.0-2.0-0.17"},{"rt":2151,"stimulus":"images/Tree/With_Backgrounds/difficulty0_image7.png","response":6,"category":"Tree","background_difficulty":"0","image_path":"images/Tree/With_Backgrounds/difficulty0_image7.png","trial_type":"image-button-response","trial_index":20,"time_elapsed":77873,"internal_node_id":"0.0-2.0-0.18"},{"rt":1429,"stimulus":"images/Broccoli/With_Backgrounds/difficulty6_image1.png","response":1,"category":"Broccoli","background_difficulty":"6","image_path":"images/Broccoli/With_Backgrounds/difficulty6_image1.png","trial_type":"image-button-response","trial_index":21,"time_elapsed":79304,"internal_node_id":"0.0-2.0-0.19"},{"rt":965,"stimulus":"images/Broccoli/With_Backgrounds/difficulty4_image4.png","response":1,"category":"Broccoli","background_difficulty":"4","image_path":"images/Broccoli/With_Backgrounds/difficulty4_image4.png","trial_type":"image-button-response","trial_index":22,"time_elapsed":80270,"internal_node_id":"0.0-2.0-0.20"},{"rt":983,"stimulus":"images/Broccoli/With_Backgrounds/difficulty7_image2.png","response":1,"category":"Broccoli","background_difficulty":"7","image_path":"images/Broccoli/With_Backgrounds/difficulty7_image2.png","trial_type":"image-button-response","trial_index":23,"time_elapsed":81255,"internal_node_id":"0.0-2.0-0.21"},{"rt":1064,"stimulus":"images/Cat/With_Backgrounds/difficulty7_image0.png","response":3,"category":"Cat","background_difficulty":"7","image_path":"images/Cat/With_Backgrounds/difficulty7_image0.png","trial_type":"image-button-response","trial_index":24,"time_elapsed":82321,"internal_node_id":"0.0-2.0-0.22"},{"rt":949,"stimulus":"images/Human/With_Backgrounds/difficulty6_image8.png","response":5,"category":"Human","background_difficulty":"6","image_path":"images/Human/With_Backgrounds/difficulty6_image8.png","trial_type":"image-button-response","trial_index":25,"time_elapsed":83273,"internal_node_id":"0.0-2.0-0.23"},{"rt":1479,"stimulus":"images/Car/With_Backgrounds/difficulty6_image6.png","response":2,"category":"Car","background_difficulty":"6","image_path":"images/Car/With_Backgrounds/difficulty6_image6.png","trial_type":"image-button-response","trial_index":26,"time_elapsed":84754,"internal_node_id":"0.0-2.0-0.24"},{"rt":2132,"stimulus":"images/Other/With_Backgrounds/difficulty7_image5.png","response":7,"category":"Other","background_difficulty":"7","image_path":"images/Other/With_Backgrounds/difficulty7_image5.png","trial_type":"image-button-response","trial_index":27,"time_elapsed":86888,"internal_node_id":"0.0-2.0-0.25"},{"rt":3064,"stimulus":"images/Tree/With_Backgrounds/difficulty5_image8.png","response":6,"category":"Tree","background_difficulty":"5","image_path":"images/Tree/With_Backgrounds/difficulty5_image8.png","trial_type":"image-button-response","trial_index":28,"time_elapsed":89954,"internal_node_id":"0.0-2.0-0.26"},{"rt":1367,"stimulus":"images/Boat/With_Backgrounds/difficulty3_image1.png","response":0,"category":"Boat","background_difficulty":"3","image_path":"images/Boat/With_Backgrounds/difficulty3_image1.png","trial_type":"image-button-response","trial_index":29,"time_elapsed":91322,"internal_node_id":"0.0-2.0-0.27"},{"rt":1014,"stimulus":"images/Dog/With_Backgrounds/difficulty2_image6.png","response":4,"category":"Dog","background_difficulty":"2","image_path":"images/Dog/With_Backgrounds/difficulty2_image6.png","trial_type":"image-button-response","trial_index":30,"time_elapsed":92338,"internal_node_id":"0.0-2.0-0.28"},{"rt":1048,"stimulus":"images/Broccoli/With_Backgrounds/difficulty0_image5.png","response":1,"category":"Broccoli","background_difficulty":"0","image_path":"images/Broccoli/With_Backgrounds/difficulty0_image5.png","trial_type":"image-button-response","trial_index":31,"time_elapsed":93388,"internal_node_id":"0.0-2.0-0.29"},{"rt":1315,"stimulus":"images/Dog/With_Backgrounds/difficulty0_image5.png","response":4,"category":"Dog","background_difficulty":"0","image_path":"images/Dog/With_Backgrounds/difficulty0_image5.png","trial_type":"image-button-response","trial_index":32,"time_elapsed":94704,"internal_node_id":"0.0-2.0-0.30"},{"rt":934,"stimulus":"images/Car/With_Backgrounds/difficulty3_image5.png","response":2,"category":"Car","background_difficulty":"3","image_path":"images/Car/With_Backgrounds/difficulty3_image5.png","trial_type":"image-button-response","trial_index":33,"time_elapsed":95640,"internal_node_id":"0.0-2.0-0.31"},{"rt":1996,"stimulus":"images/Tree/With_Backgrounds/difficulty3_image9.png","response":6,"category":"Tree","background_difficulty":"3","image_path":"images/Tree/With_Backgrounds/difficulty3_image9.png","trial_type":"image-button-response","trial_index":34,"time_elapsed":97638,"internal_node_id":"0.0-2.0-0.32"},{"rt":1681,"stimulus":"images/Boat/With_Backgrounds/difficulty8_image7.png","response":7,"category":"Boat","background_difficulty":"8","image_path":"images/Boat/With_Backgrounds/difficulty8_image7.png","trial_type":"image-button-response","trial_index":35,"time_elapsed":99321,"internal_node_id":"0.0-2.0-0.33"},{"rt":1131,"stimulus":"images/Boat/With_Backgrounds/difficulty7_image2.png","response":7,"category":"Boat","background_difficulty":"7","image_path":"images/Boat/With_Backgrounds/difficulty7_image2.png","trial_type":"image-button-response","trial_index":36,"time_elapsed":100455,"internal_node_id":"0.0-2.0-0.34"},{"rt":1197,"stimulus":"images/Cat/With_Backgrounds/difficulty0_image4.png","response":3,"category":"Cat","background_difficulty":"0","image_path":"images/Cat/With_Backgrounds/difficulty0_image4.png","trial_type":"image-button-response","trial_index":37,"time_elapsed":101653,"internal_node_id":"0.0-2.0-0.35"},{"rt":835,"stimulus":"images/Dog/With_Backgrounds/difficulty1_image7.png","response":4,"category":"Dog","background_difficulty":"1","image_path":"images/Dog/With_Backgrounds/difficulty1_image7.png","trial_type":"image-button-response","trial_index":38,"time_elapsed":102490,"internal_node_id":"0.0-2.0-0.36"},{"rt":1046,"stimulus":"images/Human/With_Backgrounds/difficulty8_image6.png","response":5,"category":"Human","background_difficulty":"8","image_path":"images/Human/With_Backgrounds/difficulty8_image6.png","trial_type":"image-button-response","trial_index":39,"time_elapsed":103538,"internal_node_id":"0.0-2.0-0.37"},{"rt":2200,"stimulus":"images/Broccoli/With_Backgrounds/difficulty5_image6.png","response":1,"category":"Broccoli","background_difficulty":"5","image_path":"images/Broccoli/With_Backgrounds/difficulty5_image6.png","trial_type":"image-button-response","trial_index":40,"time_elapsed":105740,"internal_node_id":"0.0-2.0-0.38"},{"rt":930,"stimulus":"images/Cat/With_Backgrounds/difficulty8_image8.png","response":3,"category":"Cat","background_difficulty":"8","image_path":"images/Cat/With_Backgrounds/difficulty8_image8.png","trial_type":"image-button-response","trial_index":41,"time_elapsed":106671,"internal_node_id":"0.0-2.0-0.39"},{"rt":1064,"stimulus":"images/Other/With_Backgrounds/difficulty8_image1.png","response":7,"category":"Other","background_difficulty":"8","image_path":"images/Other/With_Backgrounds/difficulty8_image1.png","trial_type":"image-button-response","trial_index":42,"time_elapsed":107738,"internal_node_id":"0.0-2.0-0.40"},{"rt":2397,"stimulus":"images/Tree/With_Backgrounds/difficulty1_image3.png","response":6,"category":"Tree","background_difficulty":"1","image_path":"images/Tree/With_Backgrounds/difficulty1_image3.png","trial_type":"image-button-response","trial_index":43,"time_elapsed":110136,"internal_node_id":"0.0-2.0-0.41"},{"rt":1218,"stimulus":"images/Car/With_Backgrounds/difficulty5_image9.png","response":2,"category":"Car","background_difficulty":"5","image_path":"images/Car/With_Backgrounds/difficulty5_image9.png","trial_type":"image-button-response","trial_index":44,"time_elapsed":111355,"internal_node_id":"0.0-2.0-0.42"},{"rt":1146,"stimulus":"images/Other/With_Backgrounds/difficulty4_image6.png","response":7,"category":"Other","background_difficulty":"4","image_path":"images/Other/With_Backgrounds/difficulty4_image6.png","trial_type":"image-button-response","trial_index":45,"time_elapsed":112503,"internal_node_id":"0.0-2.0-0.43"},{"rt":1569,"stimulus":"images/Other/With_Backgrounds/difficulty6_image2.png","response":7,"category":"Other","background_difficulty":"6","image_path":"images/Other/With_Backgrounds/difficulty6_image2.png","trial_type":"image-button-response","trial_index":46,"time_elapsed":114074,"internal_node_id":"0.0-2.0-0.44"},{"rt":1328,"stimulus":"images/Boat/With_Backgrounds/difficulty0_image6.png","response":7,"category":"Boat","background_difficulty":"0","image_path":"images/Boat/With_Backgrounds/difficulty0_image6.png","trial_type":"image-button-response","trial_index":47,"time_elapsed":115405,"internal_node_id":"0.0-2.0-0.45"},{"rt":2214,"stimulus":"images/Car/With_Backgrounds/difficulty0_image7.png","response":2,"category":"Car","background_difficulty":"0","image_path":"images/Car/With_Backgrounds/difficulty0_image7.png","trial_type":"image-button-response","trial_index":48,"time_elapsed":117621,"internal_node_id":"0.0-2.0-0.46"},{"rt":1567,"stimulus":"images/Dog/With_Backgrounds/difficulty7_image8.png","response":4,"category":"Dog","background_difficulty":"7","image_path":"images/Dog/With_Backgrounds/difficulty7_image8.png","trial_type":"image-button-response","trial_index":49,"time_elapsed":119191,"internal_node_id":"0.0-2.0-0.47"},{"rt":2012,"stimulus":"images/Broccoli/With_Backgrounds/difficulty2_image8.png","response":1,"category":"Broccoli","background_difficulty":"2","image_path":"images/Broccoli/With_Backgrounds/difficulty2_image8.png","trial_type":"image-button-response","trial_index":50,"time_elapsed":121204,"internal_node_id":"0.0-2.0-0.48"},{"rt":1199,"stimulus":"images/Other/With_Backgrounds/difficulty3_image3.png","response":7,"category":"Other","background_difficulty":"3","image_path":"images/Other/With_Backgrounds/difficulty3_image3.png","trial_type":"image-button-response","trial_index":51,"time_elapsed":122405,"internal_node_id":"0.0-2.0-0.49"},{"rt":1165,"stimulus":"images/Human/With_Backgrounds/difficulty3_image1.png","response":5,"category":"Human","background_difficulty":"3","image_path":"images/Human/With_Backgrounds/difficulty3_image1.png","trial_type":"image-button-response","trial_index":52,"time_elapsed":123571,"internal_node_id":"0.0-2.0-0.50"},{"rt":1348,"stimulus":"images/Car/With_Backgrounds/difficulty4_image1.png","response":2,"category":"Car","background_difficulty":"4","image_path":"images/Car/With_Backgrounds/difficulty4_image1.png","trial_type":"image-button-response","trial_index":53,"time_elapsed":124921,"internal_node_id":"0.0-2.0-0.51"},{"rt":1181,"stimulus":"images/Boat/With_Backgrounds/difficulty2_image4.png","response":7,"category":"Boat","background_difficulty":"2","image_path":"images/Boat/With_Backgrounds/difficulty2_image4.png","trial_type":"image-button-response","trial_index":54,"time_elapsed":126105,"internal_node_id":"0.0-2.0-0.52"},{"rt":1401,"stimulus":"images/Other/With_Backgrounds/difficulty0_image4.png","response":7,"category":"Other","background_difficulty":"0","image_path":"images/Other/With_Backgrounds/difficulty0_image4.png","trial_type":"image-button-response","trial_index":55,"time_elapsed":127508,"internal_node_id":"0.0-2.0-0.53"},{"rt":1211,"stimulus":"images/Human/With_Backgrounds/difficulty2_image7.png","response":5,"category":"Human","background_difficulty":"2","image_path":"images/Human/With_Backgrounds/difficulty2_image7.png","trial_type":"image-button-response","trial_index":56,"time_elapsed":128721,"internal_node_id":"0.0-2.0-0.54"},{"rt":1232,"stimulus":"images/Cat/With_Backgrounds/difficulty4_image7.png","response":3,"category":"Cat","background_difficulty":"4","image_path":"images/Cat/With_Backgrounds/difficulty4_image7.png","trial_type":"image-button-response","trial_index":57,"time_elapsed":129955,"internal_node_id":"0.0-2.0-0.55"},{"rt":1247,"stimulus":"images/Cat/With_Backgrounds/difficulty2_image3.png","response":3,"category":"Cat","background_difficulty":"2","image_path":"images/Cat/With_Backgrounds/difficulty2_image3.png","trial_type":"image-button-response","trial_index":58,"time_elapsed":131204,"internal_node_id":"0.0-2.0-0.56"},{"rt":1398,"stimulus":"images/Dog/With_Backgrounds/difficulty8_image9.png","response":4,"category":"Dog","background_difficulty":"8","image_path":"images/Dog/With_Backgrounds/difficulty8_image9.png","trial_type":"image-button-response","trial_index":59,"time_elapsed":132605,"internal_node_id":"0.0-2.0-0.57"},{"rt":1247,"stimulus":"images/Car/With_Backgrounds/difficulty2_image0.png","response":2,"category":"Car","background_difficulty":"2","image_path":"images/Car/With_Backgrounds/difficulty2_image0.png","trial_type":"image-button-response","trial_index":60,"time_elapsed":133855,"internal_node_id":"0.0-2.0-0.58"},{"rt":1165,"stimulus":"images/Dog/With_Backgrounds/difficulty5_image4.png","response":4,"category":"Dog","background_difficulty":"5","image_path":"images/Dog/With_Backgrounds/difficulty5_image4.png","trial_type":"image-button-response","trial_index":61,"time_elapsed":135022,"internal_node_id":"0.0-2.0-0.59"},{"rt":929,"stimulus":"images/Dog/With_Backgrounds/difficulty6_image1.png","response":4,"category":"Dog","background_difficulty":"6","image_path":"images/Dog/With_Backgrounds/difficulty6_image1.png","trial_type":"image-button-response","trial_index":62,"time_elapsed":135955,"internal_node_id":"0.0-2.0-0.60"},{"rt":983,"stimulus":"images/Cat/With_Backgrounds/difficulty3_image1.png","response":3,"category":"Cat","background_difficulty":"3","image_path":"images/Cat/With_Backgrounds/difficulty3_image1.png","trial_type":"image-button-response","trial_index":63,"time_elapsed":136941,"internal_node_id":"0.0-2.0-0.61"},{"rt":1145,"stimulus":"images/Boat/With_Backgrounds/difficulty6_image0.png","response":7,"category":"Boat","background_difficulty":"6","image_path":"images/Boat/With_Backgrounds/difficulty6_image0.png","trial_type":"image-button-response","trial_index":64,"time_elapsed":138087,"internal_node_id":"0.0-2.0-0.62"},{"rt":1282,"stimulus":"images/Boat/With_Backgrounds/difficulty5_image3.png","response":7,"category":"Boat","background_difficulty":"5","image_path":"images/Boat/With_Backgrounds/difficulty5_image3.png","trial_type":"image-button-response","trial_index":65,"time_elapsed":139371,"internal_node_id":"0.0-2.0-0.63"},{"rt":1032,"stimulus":"images/Dog/With_Backgrounds/difficulty3_image3.png","response":4,"category":"Dog","background_difficulty":"3","image_path":"images/Dog/With_Backgrounds/difficulty3_image3.png","trial_type":"image-button-response","trial_index":66,"time_elapsed":140406,"internal_node_id":"0.0-2.0-0.64"},{"rt":1098,"stimulus":"images/Human/With_Backgrounds/difficulty7_image5.png","response":5,"category":"Human","background_difficulty":"7","image_path":"images/Human/With_Backgrounds/difficulty7_image5.png","trial_type":"image-button-response","trial_index":67,"time_elapsed":141506,"internal_node_id":"0.0-2.0-0.65"},{"rt":964,"stimulus":"images/Human/With_Backgrounds/difficulty4_image4.png","response":5,"category":"Human","background_difficulty":"4","image_path":"images/Human/With_Backgrounds/difficulty4_image4.png","trial_type":"image-button-response","trial_index":68,"time_elapsed":142472,"internal_node_id":"0.0-2.0-0.66"},{"rt":1047,"stimulus":"images/Cat/With_Backgrounds/difficulty1_image9.png","response":3,"category":"Cat","background_difficulty":"1","image_path":"images/Cat/With_Backgrounds/difficulty1_image9.png","trial_type":"image-button-response","trial_index":69,"time_elapsed":143521,"internal_node_id":"0.0-2.0-0.67"},{"rt":2331,"stimulus":"images/Tree/With_Backgrounds/difficulty2_image4.png","response":6,"category":"Tree","background_difficulty":"2","image_path":"images/Tree/With_Backgrounds/difficulty2_image4.png","trial_type":"image-button-response","trial_index":70,"time_elapsed":145855,"internal_node_id":"0.0-2.0-0.68"},{"rt":1347,"stimulus":"images/Other/With_Backgrounds/difficulty5_image0.png","response":7,"category":"Other","background_difficulty":"5","image_path":"images/Other/With_Backgrounds/difficulty5_image0.png","trial_type":"image-button-response","trial_index":71,"time_elapsed":147204,"internal_node_id":"0.0-2.0-0.69"},{"rt":1115,"stimulus":"images/Boat/With_Backgrounds/difficulty1_image8.png","response":7,"category":"Boat","background_difficulty":"1","image_path":"images/Boat/With_Backgrounds/difficulty1_image8.png","trial_type":"image-button-response","trial_index":72,"time_elapsed":148320,"internal_node_id":"0.0-2.0-0.70"},{"rt":1749,"stimulus":"images/Tree/With_Backgrounds/difficulty6_image2.png","response":6,"category":"Tree","background_difficulty":"6","image_path":"images/Tree/With_Backgrounds/difficulty6_image2.png","trial_type":"image-button-response","trial_index":73,"time_elapsed":150072,"internal_node_id":"0.0-2.0-0.71"},{"rt":2548,"stimulus":["<h2>Press the button below to end experiment.</h2><p>Thank you for participating!</p>"],"response":0,"trial_type":"html-button-response","trial_index":74,"time_elapsed":152621,"internal_node_id":"0.0-3.0"}]