[{"success":true,"timeout":false,"failed_images":[],"failed_audio":[],"failed_video":[],"trial_type":"preload","trial_index":0,"time_elapsed":1365,"internal_node_id":"0.0-0.0"},{"rt":11846,"stimulus":["<h2>Noisy background image classification</h2><p>In this experiment you will briefly see images on top of colored squares of various sizes.</p><p>Your task is to report what each image is, selecting \"None of the Above\" if none of the given options are correct.</p> <p>The possible options are <strong>Boat</strong>, <strong>Broccoli</strong>, <strong>Car</strong>, <strong>Cat</strong>, <strong>Dog</strong>, <strong>Human</strong>, <strong>Tree</strong>, and <strong>None of the Above</strong>"],"response":0,"trial_type":"html-button-response","trial_index":1,"time_elapsed":13213,"internal_node_id":"0.0-1.0"},{"rt":2003,"stimulus":"images/Cat/With_Backgrounds/difficulty2_image2.png","response":3,"category":"Cat","background_difficulty":"2","image_path":"images/Cat/With_Backgrounds/difficulty2_image2.png","trial_type":"image-button-response","trial_index":2,"time_elapsed":15228,"internal_node_id":"0.0-2.0-0.0"},{"rt":2123,"stimulus":"images/Boat/With_Backgrounds/difficulty8_image0.png","response":0,"category":"Boat","background_difficulty":"8","image_path":"images/Boat/With_Backgrounds/difficulty8_image0.png","trial_type":"image-button-response","trial_index":3,"time_elapsed":17364,"internal_node_id":"0.0-2.0-0.1"},{"rt":1676,"stimulus":"images/Boat/With_Backgrounds/difficulty2_image8.png","response":0,"category":"Boat","background_difficulty":"2","image_path":"images/Boat/With_Backgrounds/difficulty2_image8.png","trial_type":"image-button-response","trial_index":4,"time_elapsed":19048,"internal_node_id":"0.0-2.0-0.2"},{"rt":1774,"stimulus":"images/Broccoli/With_Backgrounds/difficulty0_image4.png","response":1,"category":"Broccoli","background_difficulty":"0","image_path":"images/Broccoli/With_Backgrounds/difficulty0_image4.png","trial_type":"image-button-response","trial_index":5,"time_elapsed":20833,"internal_node_id":"0.0-2.0-0.3"},{"rt":3240,"stimulus":"images/Tree/With_Backgrounds/difficulty6_image6.png","response":6,"category":"Tree","background_difficulty":"6","image_path":"images/Tree/With_Backgrounds/difficulty6_image6.png","trial_type":"image-button-response","trial_index":6,"time_elapsed":24084,"internal_node_id":"0.0-2.0-0.4"},{"rt":1997,"stimulus":"images/Boat/With_Backgrounds/difficulty6_image3.png","response":0,"category":"Boat","background_difficulty":"6","image_path":"images/Boat/With_Backgrounds/difficulty6_image3.png","trial_type":"image-button-response","trial_index":7,"time_elapsed":26088,"internal_node_id":"0.0-2.0-0.5"},{"rt":2208,"stimulus":"images/Cat/With_Backgrounds/difficulty3_image7.png","response":3,"category":"Cat","background_difficulty":"3","image_path":"images/Cat/With_Backgrounds/difficulty3_image7.png","trial_type":"image-button-response","trial_index":8,"time_elapsed":28308,"internal_node_id":"0.0-2.0-0.6"},{"rt":2027,"stimulus":"images/Car/With_Backgrounds/difficulty5_image4.png","response":2,"category":"Car","background_difficulty":"5","image_path":"images/Car/With_Backgrounds/difficulty5_image4.png","trial_type":"image-button-response","trial_index":9,"time_elapsed":30345,"internal_node_id":"0.0-2.0-0.7"},{"rt":1990,"stimulus":"images/Boat/With_Backgrounds/difficulty0_image7.png","response":0,"category":"Boat","background_difficulty":"0","image_path":"images/Boat/With_Backgrounds/difficulty0_image7.png","trial_type":"image-button-response","trial_index":10,"time_elapsed":32344,"internal_node_id":"0.0-2.0-0.8"},{"rt":1890,"stimulus":"images/Dog/With_Backgrounds/difficulty1_image2.png","response":4,"category":"Dog","background_difficulty":"1","image_path":"images/Dog/With_Backgrounds/difficulty1_image2.png","trial_type":"image-button-response","trial_index":11,"time_elapsed":34244,"internal_node_id":"0.0-2.0-0.9"},{"rt":1671,"stimulus":"images/Human/With_Backgrounds/difficulty2_image7.png","response":5,"category":"Human","background_difficulty":"2","image_path":"images/Human/With_Backgrounds/difficulty2_image7.png","trial_type":"image-button-response","trial_index":12,"time_elapsed":35929,"internal_node_id":"0.0-2.0-0.10"},{"rt":1992,"stimulus":"images/Car/With_Backgrounds/difficulty2_image8.png","response":2,"category":"Car","background_difficulty":"2","image_path":"images/Car/With_Backgrounds/difficulty2_image8.png","trial_type":"image-button-response","trial_index":13,"time_elapsed":37933,"internal_node_id":"0.0-2.0-0.11"},{"rt":1737,"stimulus":"images/Human/With_Backgrounds/difficulty3_image2.png","response":5,"category":"Human","background_difficulty":"3","image_path":"images/Human/With_Backgrounds/difficulty3_image2.png","trial_type":"image-button-response","trial_index":14,"time_elapsed":39680,"internal_node_id":"0.0-2.0-0.12"},{"rt":1860,"stimulus":"images/Cat/With_Backgrounds/difficulty7_image8.png","response":3,"category":"Cat","background_difficulty":"7","image_path":"images/Cat/With_Backgrounds/difficulty7_image8.png","trial_type":"image-button-response","trial_index":15,"time_elapsed":41552,"internal_node_id":"0.0-2.0-0.13"},{"rt":1686,"stimulus":"images/Human/With_Backgrounds/difficulty6_image8.png","response":5,"category":"Human","background_difficulty":"6","image_path":"images/Human/With_Backgrounds/difficulty6_image8.png","trial_type":"image-button-response","trial_index":16,"time_elapsed":43248,"internal_node_id":"0.0-2.0-0.14"},{"rt":1681,"stimulus":"images/Boat/With_Backgrounds/difficulty4_image5.png","response":0,"category":"Boat","background_difficulty":"4","image_path":"images/Boat/With_Backgrounds/difficulty4_image5.png","trial_type":"image-button-response","trial_index":17,"time_elapsed":44934,"internal_node_id":"0.0-2.0-0.15"},{"rt":1755,"stimulus":"images/Broccoli/With_Backgrounds/difficulty7_image5.png","response":1,"category":"Broccoli","background_difficulty":"7","image_path":"images/Broccoli/With_Backgrounds/difficulty7_image5.png","trial_type":"image-button-response","trial_index":18,"time_elapsed":46702,"internal_node_id":"0.0-2.0-0.16"},{"rt":1741,"stimulus":"images/Other/With_Backgrounds/difficulty0_image5.png","response":7,"category":"Other","background_difficulty":"0","image_path":"images/Other/With_Backgrounds/difficulty0_image5.png","trial_type":"image-button-response","trial_index":19,"time_elapsed":48453,"internal_node_id":"0.0-2.0-0.17"},{"rt":1746,"stimulus":"images/Boat/With_Backgrounds/difficulty3_image6.png","response":0,"category":"Boat","background_difficulty":"3","image_path":"images/Boat/With_Backgrounds/difficulty3_image6.png","trial_type":"image-button-response","trial_index":20,"time_elapsed":50208,"internal_node_id":"0.0-2.0-0.18"},{"rt":1639,"stimulus":"images/Broccoli/With_Backgrounds/difficulty1_image9.png","response":1,"category":"Broccoli","background_difficulty":"1","image_path":"images/Broccoli/With_Backgrounds/difficulty1_image9.png","trial_type":"image-button-response","trial_index":21,"time_elapsed":51856,"internal_node_id":"0.0-2.0-0.19"},{"rt":1789,"stimulus":"images/Car/With_Backgrounds/difficulty6_image2.png","response":2,"category":"Car","background_difficulty":"6","image_path":"images/Car/With_Backgrounds/difficulty6_image2.png","trial_type":"image-button-response","trial_index":22,"time_elapsed":53656,"internal_node_id":"0.0-2.0-0.20"},{"rt":1629,"stimulus":"images/Broccoli/With_Backgrounds/difficulty3_image3.png","response":1,"category":"Broccoli","background_difficulty":"3","image_path":"images/Broccoli/With_Backgrounds/difficulty3_image3.png","trial_type":"image-button-response","trial_index":23,"time_elapsed":55291,"internal_node_id":"0.0-2.0-0.21"},{"rt":2044,"stimulus":"images/Other/With_Backgrounds/difficulty7_image8.png","response":7,"category":"Other","background_difficulty":"7","image_path":"images/Other/With_Backgrounds/difficulty7_image8.png","trial_type":"image-button-response","trial_index":24,"time_elapsed":57346,"internal_node_id":"0.0-2.0-0.22"},{"rt":1670,"stimulus":"images/Dog/With_Backgrounds/difficulty2_image5.png","response":4,"category":"Dog","background_difficulty":"2","image_path":"images/Dog/With_Backgrounds/difficulty2_image5.png","trial_type":"image-button-response","trial_index":25,"time_elapsed":59027,"internal_node_id":"0.0-2.0-0.23"},{"rt":1623,"stimulus":"images/Dog/With_Backgrounds/difficulty5_image3.png","response":4,"category":"Dog","background_difficulty":"5","image_path":"images/Dog/With_Backgrounds/difficulty5_image3.png","trial_type":"image-button-response","trial_index":26,"time_elapsed":60661,"internal_node_id":"0.0-2.0-0.24"},{"rt":1710,"stimulus":"images/Car/With_Backgrounds/difficulty8_image6.png","response":2,"category":"Car","background_difficulty":"8","image_path":"images/Car/With_Backgrounds/difficulty8_image6.png","trial_type":"image-button-response","trial_index":27,"time_elapsed":62382,"internal_node_id":"0.0-2.0-0.25"},{"rt":1571,"stimulus":"images/Broccoli/With_Backgrounds/difficulty2_image6.png","response":1,"category":"Broccoli","background_difficulty":"2","image_path":"images/Broccoli/With_Backgrounds/difficulty2_image6.png","trial_type":"image-button-response","trial_index":28,"time_elapsed":63962,"internal_node_id":"0.0-2.0-0.26"},{"rt":2031,"stimulus":"images/Tree/With_Backgrounds/difficulty2_image3.png","response":6,"category":"Tree","background_difficulty":"2","image_path":"images/Tree/With_Backgrounds/difficulty2_image3.png","trial_type":"image-button-response","trial_index":29,"time_elapsed":65998,"internal_node_id":"0.0-2.0-0.27"},{"rt":2929,"stimulus":"images/Car/With_Backgrounds/difficulty3_image9.png","response":2,"category":"Car","background_difficulty":"3","image_path":"images/Car/With_Backgrounds/difficulty3_image9.png","trial_type":"image-button-response","trial_index":30,"time_elapsed":68937,"internal_node_id":"0.0-2.0-0.28"},{"rt":1604,"stimulus":"images/Car/With_Backgrounds/difficulty4_image1.png","response":2,"category":"Car","background_difficulty":"4","image_path":"images/Car/With_Backgrounds/difficulty4_image1.png","trial_type":"image-button-response","trial_index":31,"time_elapsed":70550,"internal_node_id":"0.0-2.0-0.29"},{"rt":1605,"stimulus":"images/Dog/With_Backgrounds/difficulty4_image4.png","response":4,"category":"Dog","background_difficulty":"4","image_path":"images/Dog/With_Backgrounds/difficulty4_image4.png","trial_type":"image-button-response","trial_index":32,"time_elapsed":72168,"internal_node_id":"0.0-2.0-0.30"},{"rt":1571,"stimulus":"images/Other/With_Backgrounds/difficulty8_image9.png","response":7,"category":"Other","background_difficulty":"8","image_path":"images/Other/With_Backgrounds/difficulty8_image9.png","trial_type":"image-button-response","trial_index":33,"time_elapsed":73750,"internal_node_id":"0.0-2.0-0.31"},{"rt":1529,"stimulus":"images/Other/With_Backgrounds/difficulty6_image6.png","response":7,"category":"Other","background_difficulty":"6","image_path":"images/Other/With_Backgrounds/difficulty6_image6.png","trial_type":"image-button-response","trial_index":34,"time_elapsed":75286,"internal_node_id":"0.0-2.0-0.32"},{"rt":2060,"stimulus":"images/Tree/With_Backgrounds/difficulty5_image5.png","response":6,"category":"Tree","background_difficulty":"5","image_path":"images/Tree/With_Backgrounds/difficulty5_image5.png","trial_type":"image-button-response","trial_index":35,"time_elapsed":77357,"internal_node_id":"0.0-2.0-0.33"},{"rt":2470,"stimulus":"images/Cat/With_Backgrounds/difficulty6_image9.png","response":3,"category":"Cat","background_difficulty":"6","image_path":"images/Cat/With_Backgrounds/difficulty6_image9.png","trial_type":"image-button-response","trial_index":36,"time_elapsed":79838,"internal_node_id":"0.0-2.0-0.34"},{"rt":1673,"stimulus":"images/Cat/With_Backgrounds/difficulty1_image0.png","response":3,"category":"Cat","background_difficulty":"1","image_path":"images/Cat/With_Backgrounds/difficulty1_image0.png","trial_type":"image-button-response","trial_index":37,"time_elapsed":81521,"internal_node_id":"0.0-2.0-0.35"},{"rt":1725,"stimulus":"images/Car/With_Backgrounds/difficulty7_image3.png","response":2,"category":"Car","background_difficulty":"7","image_path":"images/Car/With_Backgrounds/difficulty7_image3.png","trial_type":"image-button-response","trial_index":38,"time_elapsed":83257,"internal_node_id":"0.0-2.0-0.36"},{"rt":1495,"stimulus":"images/Cat/With_Backgrounds/difficulty4_image6.png","response":3,"category":"Cat","background_difficulty":"4","image_path":"images/Cat/With_Backgrounds/difficulty4_image6.png","trial_type":"image-button-response","trial_index":39,"time_elapsed":84757,"internal_node_id":"0.0-2.0-0.37"},{"rt":2493,"stimulus":"images/Car/With_Backgrounds/difficulty1_image0.png","response":2,"category":"Car","background_difficulty":"1","image_path":"images/Car/With_Backgrounds/difficulty1_image0.png","trial_type":"image-button-response","trial_index":40,"time_elapsed":87260,"internal_node_id":"0.0-2.0-0.38"},{"rt":1890,"stimulus":"images/Other/With_Backgrounds/difficulty4_image1.png","response":7,"category":"Other","background_difficulty":"4","image_path":"images/Other/With_Backgrounds/difficulty4_image1.png","trial_type":"image-button-response","trial_index":41,"time_elapsed":89161,"internal_node_id":"0.0-2.0-0.39"},{"rt":1456,"stimulus":"images/Other/With_Backgrounds/difficulty1_image7.png","response":7,"category":"Other","background_difficulty":"1","image_path":"images/Other/With_Backgrounds/difficulty1_image7.png","trial_type":"image-button-response","trial_index":42,"time_elapsed":90628,"internal_node_id":"0.0-2.0-0.40"},{"rt":1673,"stimulus":"images/Tree/With_Backgrounds/difficulty7_image2.png","response":6,"category":"Tree","background_difficulty":"7","image_path":"images/Tree/With_Backgrounds/difficulty7_image2.png","trial_type":"image-button-response","trial_index":43,"time_elapsed":92313,"internal_node_id":"0.0-2.0-0.41"},{"rt":1672,"stimulus":"images/Human/With_Backgrounds/difficulty5_image0.png","response":5,"category":"Human","background_difficulty":"5","image_path":"images/Human/With_Backgrounds/difficulty5_image0.png","trial_type":"image-button-response","trial_index":44,"time_elapsed":93998,"internal_node_id":"0.0-2.0-0.42"},{"rt":1728,"stimulus":"images/Boat/With_Backgrounds/difficulty1_image9.png","response":0,"category":"Boat","background_difficulty":"1","image_path":"images/Boat/With_Backgrounds/difficulty1_image9.png","trial_type":"image-button-response","trial_index":45,"time_elapsed":95731,"internal_node_id":"0.0-2.0-0.43"},{"rt":1622,"stimulus":"images/Human/With_Backgrounds/difficulty0_image6.png","response":5,"category":"Human","background_difficulty":"0","image_path":"images/Human/With_Backgrounds/difficulty0_image6.png","trial_type":"image-button-response","trial_index":46,"time_elapsed":97365,"internal_node_id":"0.0-2.0-0.44"},{"rt":1694,"stimulus":"images/Boat/With_Backgrounds/difficulty7_image4.png","response":0,"category":"Boat","background_difficulty":"7","image_path":"images/Boat/With_Backgrounds/difficulty7_image4.png","trial_type":"image-button-response","trial_index":47,"time_elapsed":99069,"internal_node_id":"0.0-2.0-0.45"},{"rt":1772,"stimulus":"images/Tree/With_Backgrounds/difficulty3_image7.png","response":6,"category":"Tree","background_difficulty":"3","image_path":"images/Tree/With_Backgrounds/difficulty3_image7.png","trial_type":"image-button-response","trial_index":48,"time_elapsed":100850,"internal_node_id":"0.0-2.0-0.46"},{"rt":1655,"stimulus":"images/Broccoli/With_Backgrounds/difficulty8_image7.png","response":1,"category":"Broccoli","background_difficulty":"8","image_path":"images/Broccoli/With_Backgrounds/difficulty8_image7.png","trial_type":"image-button-response","trial_index":49,"time_elapsed":102517,"internal_node_id":"0.0-2.0-0.47"},{"rt":1707,"stimulus":"images/Tree/With_Backgrounds/difficulty1_image9.png","response":6,"category":"Tree","background_difficulty":"1","image_path":"images/Tree/With_Backgrounds/difficulty1_image9.png","trial_type":"image-button-response","trial_index":50,"time_elapsed":104233,"internal_node_id":"0.0-2.0-0.48"},{"rt":1683,"stimulus":"images/Broccoli/With_Backgrounds/difficulty5_image0.png","response":1,"category":"Broccoli","background_difficulty":"5","image_path":"images/Broccoli/With_Backgrounds/difficulty5_image0.png","trial_type":"image-button-response","trial_index":51,"time_elapsed":105922,"internal_node_id":"0.0-2.0-0.49"},{"rt":1557,"stimulus":"images/Boat/With_Backgrounds/difficulty5_image2.png","response":0,"category":"Boat","background_difficulty":"5","image_path":"images/Boat/With_Backgrounds/difficulty5_image2.png","trial_type":"image-button-response","trial_index":52,"time_elapsed":107488,"internal_node_id":"0.0-2.0-0.50"},{"rt":1573,"stimulus":"images/Dog/With_Backgrounds/difficulty0_image7.png","response":4,"category":"Dog","background_difficulty":"0","image_path":"images/Dog/With_Backgrounds/difficulty0_image7.png","trial_type":"image-button-response","trial_index":53,"time_elapsed":109072,"internal_node_id":"0.0-2.0-0.51"},{"rt":1490,"stimulus":"images/Human/With_Backgrounds/difficulty1_image9.png","response":5,"category":"Human","background_difficulty":"1","image_path":"images/Human/With_Backgrounds/difficulty1_image9.png","trial_type":"image-button-response","trial_index":54,"time_elapsed":110573,"internal_node_id":"0.0-2.0-0.52"},{"rt":1677,"stimulus":"images/Other/With_Backgrounds/difficulty2_image3.png","response":7,"category":"Other","background_difficulty":"2","image_path":"images/Other/With_Backgrounds/difficulty2_image3.png","trial_type":"image-button-response","trial_index":55,"time_elapsed":112261,"internal_node_id":"0.0-2.0-0.53"},{"rt":1570,"stimulus":"images/Dog/With_Backgrounds/difficulty6_image9.png","response":4,"category":"Dog","background_difficulty":"6","image_path":"images/Dog/With_Backgrounds/difficulty6_image9.png","trial_type":"image-button-response","trial_index":56,"time_elapsed":113840,"internal_node_id":"0.0-2.0-0.54"},{"rt":1746,"stimulus":"images/Car/With_Backgrounds/difficulty0_image7.png","response":2,"category":"Car","background_difficulty":"0","image_path":"images/Car/With_Backgrounds/difficulty0_image7.png","trial_type":"image-button-response","trial_index":57,"time_elapsed":115591,"internal_node_id":"0.0-2.0-0.55"},{"rt":1541,"stimulus":"images/Dog/With_Backgrounds/difficulty7_image0.png","response":4,"category":"Dog","background_difficulty":"7","image_path":"images/Dog/With_Backgrounds/difficulty7_image0.png","trial_type":"image-button-response","trial_index":58,"time_elapsed":117142,"internal_node_id":"0.0-2.0-0.56"},{"rt":1778,"stimulus":"images/Tree/With_Backgrounds/difficulty0_image1.png","response":6,"category":"Tree","background_difficulty":"0","image_path":"images/Tree/With_Backgrounds/difficulty0_image1.png","trial_type":"image-button-response","trial_index":59,"time_elapsed":118930,"internal_node_id":"0.0-2.0-0.57"},{"rt":1590,"stimulus":"images/Tree/With_Backgrounds/difficulty4_image4.png","response":6,"category":"Tree","background_difficulty":"4","image_path":"images/Tree/With_Backgrounds/difficulty4_image4.png","trial_type":"image-button-response","trial_index":60,"time_elapsed":120528,"internal_node_id":"0.0-2.0-0.58"},{"rt":1656,"stimulus":"images/Broccoli/With_Backgrounds/difficulty4_image8.png","response":1,"category":"Broccoli","background_difficulty":"4","image_path":"images/Broccoli/With_Backgrounds/difficulty4_image8.png","trial_type":"image-button-response","trial_index":61,"time_elapsed":122196,"internal_node_id":"0.0-2.0-0.59"},{"rt":1539,"stimulus":"images/Other/With_Backgrounds/difficulty5_image2.png","response":7,"category":"Other","background_difficulty":"5","image_path":"images/Other/With_Backgrounds/difficulty5_image2.png","trial_type":"image-button-response","trial_index":62,"time_elapsed":123745,"internal_node_id":"0.0-2.0-0.60"},{"rt":1498,"stimulus":"images/Human/With_Backgrounds/difficulty7_image1.png","response":5,"category":"Human","background_difficulty":"7","image_path":"images/Human/With_Backgrounds/difficulty7_image1.png","trial_type":"image-button-response","trial_index":63,"time_elapsed":125250,"internal_node_id":"0.0-2.0-0.61"},{"rt":1671,"stimulus":"images/Broccoli/With_Backgrounds/difficulty6_image1.png","response":1,"category":"Broccoli","background_difficulty":"6","image_path":"images/Broccoli/With_Backgrounds/difficulty6_image1.png","trial_type":"image-button-response","trial_index":64,"time_elapsed":126932,"internal_node_id":"0.0-2.0-0.62"},{"rt":1588,"stimulus":"images/Human/With_Backgrounds/difficulty4_image4.png","response":5,"category":"Human","background_difficulty":"4","image_path":"images/Human/With_Backgrounds/difficulty4_image4.png","trial_type":"image-button-response","trial_index":65,"time_elapsed":128532,"internal_node_id":"0.0-2.0-0.63"},{"rt":1554,"stimulus":"images/Tree/With_Backgrounds/difficulty8_image8.png","response":6,"category":"Tree","background_difficulty":"8","image_path":"images/Tree/With_Backgrounds/difficulty8_image8.png","trial_type":"image-button-response","trial_index":66,"time_elapsed":130099,"internal_node_id":"0.0-2.0-0.64"},{"rt":1530,"stimulus":"images/Other/With_Backgrounds/difficulty3_image4.png","response":7,"category":"Other","background_difficulty":"3","image_path":"images/Other/With_Backgrounds/difficulty3_image4.png","trial_type":"image-button-response","trial_index":67,"time_elapsed":131637,"internal_node_id":"0.0-2.0-0.65"},{"rt":1803,"stimulus":"images/Cat/With_Backgrounds/difficulty8_image1.png","response":3,"category":"Cat","background_difficulty":"8","image_path":"images/Cat/With_Backgrounds/difficulty8_image1.png","trial_type":"image-button-response","trial_index":68,"time_elapsed":133452,"internal_node_id":"0.0-2.0-0.66"},{"rt":1470,"stimulus":"images/Human/With_Backgrounds/difficulty8_image3.png","response":5,"category":"Human","background_difficulty":"8","image_path":"images/Human/With_Backgrounds/difficulty8_image3.png","trial_type":"image-button-response","trial_index":69,"time_elapsed":134935,"internal_node_id":"0.0-2.0-0.67"},{"rt":1664,"stimulus":"images/Cat/With_Backgrounds/difficulty5_image5.png","response":3,"category":"Cat","background_difficulty":"5","image_path":"images/Cat/With_Backgrounds/difficulty5_image5.png","trial_type":"image-button-response","trial_index":70,"time_elapsed":136608,"internal_node_id":"0.0-2.0-0.68"},{"rt":1521,"stimulus":"images/Dog/With_Backgrounds/difficulty8_image6.png","response":4,"category":"Dog","background_difficulty":"8","image_path":"images/Dog/With_Backgrounds/difficulty8_image6.png","trial_type":"image-button-response","trial_index":71,"time_elapsed":138139,"internal_node_id":"0.0-2.0-0.69"},{"rt":1475,"stimulus":"images/Dog/With_Backgrounds/difficulty3_image1.png","response":4,"category":"Dog","background_difficulty":"3","image_path":"images/Dog/With_Backgrounds/difficulty3_image1.png","trial_type":"image-button-response","trial_index":72,"time_elapsed":139628,"internal_node_id":"0.0-2.0-0.70"},{"rt":1622,"stimulus":"images/Cat/With_Backgrounds/difficulty0_image4.png","response":3,"category":"Cat","background_difficulty":"0","image_path":"images/Cat/With_Backgrounds/difficulty0_image4.png","trial_type":"image-button-response","trial_index":73,"time_elapsed":141258,"internal_node_id":"0.0-2.0-0.71"},{"rt":2048,"stimulus":["<h2>Press the button below to end experiment.</h2><p>Thank you for participating!</p>"],"response":0,"trial_type":"html-button-response","trial_index":74,"time_elapsed":143310,"internal_node_id":"0.0-3.0"}]