[{"success":true,"timeout":false,"failed_images":[],"failed_audio":[],"failed_video":[],"trial_type":"preload","trial_index":0,"time_elapsed":1272,"internal_node_id":"0.0-0.0"},{"rt":16897,"stimulus":["<h2>Noisy background image classification</h2><p>In this experiment you will briefly see images on top of colored squares of various sizes.</p><p>Your task is to report what each image is, selecting \"None of the Above\" if none of the given options are correct.</p> <p>The possible options are <strong>Boat</strong>, <strong>Broccoli</strong>, <strong>Car</strong>, <strong>Cat</strong>, <strong>Dog</strong>, <strong>Human</strong>, <strong>Tree</strong>, and <strong>None of the Above</strong>"],"response":0,"trial_type":"html-button-response","trial_index":1,"time_elapsed":18172,"internal_node_id":"0.0-1.0"},{"rt":2693,"stimulus":"images/Broccoli/With_Backgrounds/difficulty6_image9.png","response":1,"category":"Broccoli","background_difficulty":"6","image_path":"images/Broccoli/With_Backgrounds/difficulty6_image9.png","trial_type":"image-button-response","trial_index":2,"time_elapsed":20874,"internal_node_id":"0.0-2.0-0.0"},{"rt":2805,"stimulus":"images/Tree/With_Backgrounds/difficulty0_image5.png","response":6,"category":"Tree","background_difficulty":"0","image_path":"images/Tree/With_Backgrounds/difficulty0_image5.png","trial_type":"image-button-response","trial_index":3,"time_elapsed":23691,"internal_node_id":"0.0-2.0-0.1"},{"rt":1807,"stimulus":"images/Human/With_Backgrounds/difficulty2_image7.png","response":5,"category":"Human","background_difficulty":"2","image_path":"images/Human/With_Backgrounds/difficulty2_image7.png","trial_type":"image-button-response","trial_index":4,"time_elapsed":25509,"internal_node_id":"0.0-2.0-0.2"},{"rt":4927,"stimulus":"images/Other/With_Backgrounds/difficulty8_image1.png","response":7,"category":"Other","background_difficulty":"8","image_path":"images/Other/With_Backgrounds/difficulty8_image1.png","trial_type":"image-button-response","trial_index":5,"time_elapsed":30450,"internal_node_id":"0.0-2.0-0.3"},{"rt":2589,"stimulus":"images/Cat/With_Backgrounds/difficulty5_image9.png","response":3,"category":"Cat","background_difficulty":"5","image_path":"images/Cat/With_Backgrounds/difficulty5_image9.png","trial_type":"image-button-response","trial_index":6,"time_elapsed":33050,"internal_node_id":"0.0-2.0-0.4"},{"rt":2609,"stimulus":"images/Other/With_Backgrounds/difficulty4_image2.png","response":7,"category":"Other","background_difficulty":"4","image_path":"images/Other/With_Backgrounds/difficulty4_image2.png","trial_type":"image-button-response","trial_index":7,"time_elapsed":35668,"internal_node_id":"0.0-2.0-0.5"},{"rt":2741,"stimulus":"images/Cat/With_Backgrounds/difficulty3_image0.png","response":3,"category":"Cat","background_difficulty":"3","image_path":"images/Cat/With_Backgrounds/difficulty3_image0.png","trial_type":"image-button-response","trial_index":8,"time_elapsed":38420,"internal_node_id":"0.0-2.0-0.6"},{"rt":1644,"stimulus":"images/Car/With_Backgrounds/difficulty1_image4.png","response":2,"category":"Car","background_difficulty":"1","image_path":"images/Car/With_Backgrounds/difficulty1_image4.png","trial_type":"image-button-response","trial_index":9,"time_elapsed":40074,"internal_node_id":"0.0-2.0-0.7"},{"rt":1822,"stimulus":"images/Cat/With_Backgrounds/difficulty4_image3.png","response":3,"category":"Cat","background_difficulty":"4","image_path":"images/Cat/With_Backgrounds/difficulty4_image3.png","trial_type":"image-button-response","trial_index":10,"time_elapsed":41905,"internal_node_id":"0.0-2.0-0.8"},{"rt":2422,"stimulus":"images/Broccoli/With_Backgrounds/difficulty7_image4.png","response":1,"category":"Broccoli","background_difficulty":"7","image_path":"images/Broccoli/With_Backgrounds/difficulty7_image4.png","trial_type":"image-button-response","trial_index":11,"time_elapsed":44341,"internal_node_id":"0.0-2.0-0.9"},{"rt":1789,"stimulus":"images/Cat/With_Backgrounds/difficulty6_image6.png","response":3,"category":"Cat","background_difficulty":"6","image_path":"images/Cat/With_Backgrounds/difficulty6_image6.png","trial_type":"image-button-response","trial_index":12,"time_elapsed":46141,"internal_node_id":"0.0-2.0-0.10"},{"rt":1911,"stimulus":"images/Boat/With_Backgrounds/difficulty5_image8.png","response":0,"category":"Boat","background_difficulty":"5","image_path":"images/Boat/With_Backgrounds/difficulty5_image8.png","trial_type":"image-button-response","trial_index":13,"time_elapsed":48061,"internal_node_id":"0.0-2.0-0.11"},{"rt":3022,"stimulus":"images/Broccoli/With_Backgrounds/difficulty4_image6.png","response":1,"category":"Broccoli","background_difficulty":"4","image_path":"images/Broccoli/With_Backgrounds/difficulty4_image6.png","trial_type":"image-button-response","trial_index":14,"time_elapsed":51093,"internal_node_id":"0.0-2.0-0.12"},{"rt":2808,"stimulus":"images/Tree/With_Backgrounds/difficulty8_image9.png","response":6,"category":"Tree","background_difficulty":"8","image_path":"images/Tree/With_Backgrounds/difficulty8_image9.png","trial_type":"image-button-response","trial_index":15,"time_elapsed":53913,"internal_node_id":"0.0-2.0-0.13"},{"rt":3139,"stimulus":"images/Boat/With_Backgrounds/difficulty7_image1.png","response":0,"category":"Boat","background_difficulty":"7","image_path":"images/Boat/With_Backgrounds/difficulty7_image1.png","trial_type":"image-button-response","trial_index":16,"time_elapsed":57064,"internal_node_id":"0.0-2.0-0.14"},{"rt":2040,"stimulus":"images/Cat/With_Backgrounds/difficulty8_image4.png","response":3,"category":"Cat","background_difficulty":"8","image_path":"images/Cat/With_Backgrounds/difficulty8_image4.png","trial_type":"image-button-response","trial_index":17,"time_elapsed":59115,"internal_node_id":"0.0-2.0-0.15"},{"rt":2475,"stimulus":"images/Other/With_Backgrounds/difficulty3_image4.png","response":7,"category":"Other","background_difficulty":"3","image_path":"images/Other/With_Backgrounds/difficulty3_image4.png","trial_type":"image-button-response","trial_index":18,"time_elapsed":61601,"internal_node_id":"0.0-2.0-0.16"},{"rt":1573,"stimulus":"images/Other/With_Backgrounds/difficulty6_image5.png","response":7,"category":"Other","background_difficulty":"6","image_path":"images/Other/With_Backgrounds/difficulty6_image5.png","trial_type":"image-button-response","trial_index":19,"time_elapsed":63186,"internal_node_id":"0.0-2.0-0.17"},{"rt":1843,"stimulus":"images/Car/With_Backgrounds/difficulty3_image0.png","response":2,"category":"Car","background_difficulty":"3","image_path":"images/Car/With_Backgrounds/difficulty3_image0.png","trial_type":"image-button-response","trial_index":20,"time_elapsed":65036,"internal_node_id":"0.0-2.0-0.18"},{"rt":2236,"stimulus":"images/Broccoli/With_Backgrounds/difficulty0_image7.png","response":1,"category":"Broccoli","background_difficulty":"0","image_path":"images/Broccoli/With_Backgrounds/difficulty0_image7.png","trial_type":"image-button-response","trial_index":21,"time_elapsed":67292,"internal_node_id":"0.0-2.0-0.19"},{"rt":1740,"stimulus":"images/Dog/With_Backgrounds/difficulty5_image0.png","response":4,"category":"Dog","background_difficulty":"5","image_path":"images/Dog/With_Backgrounds/difficulty5_image0.png","trial_type":"image-button-response","trial_index":22,"time_elapsed":69043,"internal_node_id":"0.0-2.0-0.20"},{"rt":1740,"stimulus":"images/Tree/With_Backgrounds/difficulty1_image1.png","response":6,"category":"Tree","background_difficulty":"1","image_path":"images/Tree/With_Backgrounds/difficulty1_image1.png","trial_type":"image-button-response","trial_index":23,"time_elapsed":70796,"internal_node_id":"0.0-2.0-0.21"},{"rt":1674,"stimulus":"images/Boat/With_Backgrounds/difficulty4_image3.png","response":0,"category":"Boat","background_difficulty":"4","image_path":"images/Boat/With_Backgrounds/difficulty4_image3.png","trial_type":"image-button-response","trial_index":24,"time_elapsed":72479,"internal_node_id":"0.0-2.0-0.22"},{"rt":1787,"stimulus":"images/Human/With_Backgrounds/difficulty4_image3.png","response":5,"category":"Human","background_difficulty":"4","image_path":"images/Human/With_Backgrounds/difficulty4_image3.png","trial_type":"image-button-response","trial_index":25,"time_elapsed":74278,"internal_node_id":"0.0-2.0-0.23"},{"rt":1760,"stimulus":"images/Car/With_Backgrounds/difficulty2_image9.png","response":2,"category":"Car","background_difficulty":"2","image_path":"images/Car/With_Backgrounds/difficulty2_image9.png","trial_type":"image-button-response","trial_index":26,"time_elapsed":76046,"internal_node_id":"0.0-2.0-0.24"},{"rt":1506,"stimulus":"images/Other/With_Backgrounds/difficulty0_image3.png","response":7,"category":"Other","background_difficulty":"0","image_path":"images/Other/With_Backgrounds/difficulty0_image3.png","trial_type":"image-button-response","trial_index":27,"time_elapsed":77562,"internal_node_id":"0.0-2.0-0.25"},{"rt":1681,"stimulus":"images/Dog/With_Backgrounds/difficulty3_image5.png","response":4,"category":"Dog","background_difficulty":"3","image_path":"images/Dog/With_Backgrounds/difficulty3_image5.png","trial_type":"image-button-response","trial_index":28,"time_elapsed":79251,"internal_node_id":"0.0-2.0-0.26"},{"rt":1788,"stimulus":"images/Broccoli/With_Backgrounds/difficulty3_image5.png","response":1,"category":"Broccoli","background_difficulty":"3","image_path":"images/Broccoli/With_Backgrounds/difficulty3_image5.png","trial_type":"image-button-response","trial_index":29,"time_elapsed":81051,"internal_node_id":"0.0-2.0-0.27"},{"rt":1404,"stimulus":"images/Other/With_Backgrounds/difficulty5_image7.png","response":7,"category":"Other","background_difficulty":"5","image_path":"images/Other/With_Backgrounds/difficulty5_image7.png","trial_type":"image-button-response","trial_index":30,"time_elapsed":82466,"internal_node_id":"0.0-2.0-0.28"},{"rt":1890,"stimulus":"images/Dog/With_Backgrounds/difficulty2_image3.png","response":4,"category":"Dog","background_difficulty":"2","image_path":"images/Dog/With_Backgrounds/difficulty2_image3.png","trial_type":"image-button-response","trial_index":31,"time_elapsed":84366,"internal_node_id":"0.0-2.0-0.29"},{"rt":1997,"stimulus":"images/Broccoli/With_Backgrounds/difficulty2_image2.png","response":1,"category":"Broccoli","background_difficulty":"2","image_path":"images/Broccoli/With_Backgrounds/difficulty2_image2.png","trial_type":"image-button-response","trial_index":32,"time_elapsed":86373,"internal_node_id":"0.0-2.0-0.30"},{"rt":1956,"stimulus":"images/Car/With_Backgrounds/difficulty8_image7.png","response":2,"category":"Car","background_difficulty":"8","image_path":"images/Car/With_Backgrounds/difficulty8_image7.png","trial_type":"image-button-response","trial_index":33,"time_elapsed":88341,"internal_node_id":"0.0-2.0-0.31"},{"rt":1809,"stimulus":"images/Human/With_Backgrounds/difficulty3_image0.png","response":5,"category":"Human","background_difficulty":"3","image_path":"images/Human/With_Backgrounds/difficulty3_image0.png","trial_type":"image-button-response","trial_index":34,"time_elapsed":90162,"internal_node_id":"0.0-2.0-0.32"},{"rt":2669,"stimulus":"images/Human/With_Backgrounds/difficulty1_image4.png","response":5,"category":"Human","background_difficulty":"1","image_path":"images/Human/With_Backgrounds/difficulty1_image4.png","trial_type":"image-button-response","trial_index":35,"time_elapsed":92843,"internal_node_id":"0.0-2.0-0.33"},{"rt":1552,"stimulus":"images/Tree/With_Backgrounds/difficulty6_image6.png","response":6,"category":"Tree","background_difficulty":"6","image_path":"images/Tree/With_Backgrounds/difficulty6_image6.png","trial_type":"image-button-response","trial_index":36,"time_elapsed":94408,"internal_node_id":"0.0-2.0-0.34"},{"rt":1661,"stimulus":"images/Cat/With_Backgrounds/difficulty1_image8.png","response":3,"category":"Cat","background_difficulty":"1","image_path":"images/Cat/With_Backgrounds/difficulty1_image8.png","trial_type":"image-button-response","trial_index":37,"time_elapsed":96079,"internal_node_id":"0.0-2.0-0.35"},{"rt":1522,"stimulus":"images/Cat/With_Backgrounds/difficulty0_image2.png","response":3,"category":"Cat","background_difficulty":"0","image_path":"images/Cat/With_Backgrounds/difficulty0_image2.png","trial_type":"image-button-response","trial_index":38,"time_elapsed":97611,"internal_node_id":"0.0-2.0-0.36"},{"rt":1772,"stimulus":"images/Human/With_Backgrounds/difficulty6_image1.png","response":5,"category":"Human","background_difficulty":"6","image_path":"images/Human/With_Backgrounds/difficulty6_image1.png","trial_type":"image-button-response","trial_index":39,"time_elapsed":99394,"internal_node_id":"0.0-2.0-0.37"},{"rt":1920,"stimulus":"images/Tree/With_Backgrounds/difficulty5_image2.png","response":6,"category":"Tree","background_difficulty":"5","image_path":"images/Tree/With_Backgrounds/difficulty5_image2.png","trial_type":"image-button-response","trial_index":40,"time_elapsed":101328,"internal_node_id":"0.0-2.0-0.38"},{"rt":1775,"stimulus":"images/Dog/With_Backgrounds/difficulty8_image9.png","response":4,"category":"Dog","background_difficulty":"8","image_path":"images/Dog/With_Backgrounds/difficulty8_image9.png","trial_type":"image-button-response","trial_index":41,"time_elapsed":103116,"internal_node_id":"0.0-2.0-0.39"},{"rt":2306,"stimulus":"images/Car/With_Backgrounds/difficulty6_image2.png","response":1,"category":"Car","background_difficulty":"6","image_path":"images/Car/With_Backgrounds/difficulty6_image2.png","trial_type":"image-button-response","trial_index":42,"time_elapsed":105432,"internal_node_id":"0.0-2.0-0.40"},{"rt":1961,"stimulus":"images/Cat/With_Backgrounds/difficulty2_image1.png","response":3,"category":"Cat","background_difficulty":"2","image_path":"images/Cat/With_Backgrounds/difficulty2_image1.png","trial_type":"image-button-response","trial_index":43,"time_elapsed":107400,"internal_node_id":"0.0-2.0-0.41"},{"rt":1741,"stimulus":"images/Dog/With_Backgrounds/difficulty6_image4.png","response":4,"category":"Dog","background_difficulty":"6","image_path":"images/Dog/With_Backgrounds/difficulty6_image4.png","trial_type":"image-button-response","trial_index":44,"time_elapsed":109151,"internal_node_id":"0.0-2.0-0.42"},{"rt":1858,"stimulus":"images/Tree/With_Backgrounds/difficulty2_image8.png","response":6,"category":"Tree","background_difficulty":"2","image_path":"images/Tree/With_Backgrounds/difficulty2_image8.png","trial_type":"image-button-response","trial_index":45,"time_elapsed":111020,"internal_node_id":"0.0-2.0-0.43"},{"rt":2205,"stimulus":"images/Dog/With_Backgrounds/difficulty4_image1.png","response":4,"category":"Dog","background_difficulty":"4","image_path":"images/Dog/With_Backgrounds/difficulty4_image1.png","trial_type":"image-button-response","trial_index":46,"time_elapsed":113240,"internal_node_id":"0.0-2.0-0.44"},{"rt":1522,"stimulus":"images/Dog/With_Backgrounds/difficulty0_image6.png","response":4,"category":"Dog","background_difficulty":"0","image_path":"images/Dog/With_Backgrounds/difficulty0_image6.png","trial_type":"image-button-response","trial_index":47,"time_elapsed":114773,"internal_node_id":"0.0-2.0-0.45"},{"rt":2376,"stimulus":"images/Other/With_Backgrounds/difficulty7_image9.png","response":7,"category":"Other","background_difficulty":"7","image_path":"images/Other/With_Backgrounds/difficulty7_image9.png","trial_type":"image-button-response","trial_index":48,"time_elapsed":117161,"internal_node_id":"0.0-2.0-0.46"},{"rt":1508,"stimulus":"images/Boat/With_Backgrounds/difficulty8_image5.png","response":0,"category":"Boat","background_difficulty":"8","image_path":"images/Boat/With_Backgrounds/difficulty8_image5.png","trial_type":"image-button-response","trial_index":49,"time_elapsed":118681,"internal_node_id":"0.0-2.0-0.47"},{"rt":1952,"stimulus":"images/Human/With_Backgrounds/difficulty0_image2.png","response":5,"category":"Human","background_difficulty":"0","image_path":"images/Human/With_Backgrounds/difficulty0_image2.png","trial_type":"image-button-response","trial_index":50,"time_elapsed":120643,"internal_node_id":"0.0-2.0-0.48"},{"rt":1895,"stimulus":"images/Boat/With_Backgrounds/difficulty3_image7.png","response":0,"category":"Boat","background_difficulty":"3","image_path":"images/Boat/With_Backgrounds/difficulty3_image7.png","trial_type":"image-button-response","trial_index":51,"time_elapsed":122547,"internal_node_id":"0.0-2.0-0.49"},{"rt":1474,"stimulus":"images/Human/With_Backgrounds/difficulty5_image9.png","response":5,"category":"Human","background_difficulty":"5","image_path":"images/Human/With_Backgrounds/difficulty5_image9.png","trial_type":"image-button-response","trial_index":52,"time_elapsed":124032,"internal_node_id":"0.0-2.0-0.50"},{"rt":1354,"stimulus":"images/Other/With_Backgrounds/difficulty1_image6.png","response":7,"category":"Other","background_difficulty":"1","image_path":"images/Other/With_Backgrounds/difficulty1_image6.png","trial_type":"image-button-response","trial_index":53,"time_elapsed":125396,"internal_node_id":"0.0-2.0-0.51"},{"rt":1713,"stimulus":"images/Tree/With_Backgrounds/difficulty4_image4.png","response":6,"category":"Tree","background_difficulty":"4","image_path":"images/Tree/With_Backgrounds/difficulty4_image4.png","trial_type":"image-button-response","trial_index":54,"time_elapsed":127119,"internal_node_id":"0.0-2.0-0.52"},{"rt":1909,"stimulus":"images/Boat/With_Backgrounds/difficulty6_image9.png","response":0,"category":"Boat","background_difficulty":"6","image_path":"images/Boat/With_Backgrounds/difficulty6_image9.png","trial_type":"image-button-response","trial_index":55,"time_elapsed":129035,"internal_node_id":"0.0-2.0-0.53"},{"rt":2135,"stimulus":"images/Broccoli/With_Backgrounds/difficulty8_image3.png","response":1,"category":"Broccoli","background_difficulty":"8","image_path":"images/Broccoli/With_Backgrounds/difficulty8_image3.png","trial_type":"image-button-response","trial_index":56,"time_elapsed":131184,"internal_node_id":"0.0-2.0-0.54"},{"rt":1445,"stimulus":"images/Boat/With_Backgrounds/difficulty1_image0.png","response":0,"category":"Boat","background_difficulty":"1","image_path":"images/Boat/With_Backgrounds/difficulty1_image0.png","trial_type":"image-button-response","trial_index":57,"time_elapsed":132638,"internal_node_id":"0.0-2.0-0.55"},{"rt":1760,"stimulus":"images/Broccoli/With_Backgrounds/difficulty5_image1.png","response":1,"category":"Broccoli","background_difficulty":"5","image_path":"images/Broccoli/With_Backgrounds/difficulty5_image1.png","trial_type":"image-button-response","trial_index":58,"time_elapsed":134409,"internal_node_id":"0.0-2.0-0.56"},{"rt":2518,"stimulus":"images/Human/With_Backgrounds/difficulty8_image5.png","response":5,"category":"Human","background_difficulty":"8","image_path":"images/Human/With_Backgrounds/difficulty8_image5.png","trial_type":"image-button-response","trial_index":59,"time_elapsed":136939,"internal_node_id":"0.0-2.0-0.57"},{"rt":2162,"stimulus":"images/Dog/With_Backgrounds/difficulty1_image2.png","response":4,"category":"Dog","background_difficulty":"1","image_path":"images/Dog/With_Backgrounds/difficulty1_image2.png","trial_type":"image-button-response","trial_index":60,"time_elapsed":139108,"internal_node_id":"0.0-2.0-0.58"},{"rt":1548,"stimulus":"images/Boat/With_Backgrounds/difficulty2_image4.png","response":0,"category":"Boat","background_difficulty":"2","image_path":"images/Boat/With_Backgrounds/difficulty2_image4.png","trial_type":"image-button-response","trial_index":61,"time_elapsed":140665,"internal_node_id":"0.0-2.0-0.59"},{"rt":2419,"stimulus":"images/Dog/With_Backgrounds/difficulty7_image8.png","response":4,"category":"Dog","background_difficulty":"7","image_path":"images/Dog/With_Backgrounds/difficulty7_image8.png","trial_type":"image-button-response","trial_index":62,"time_elapsed":143095,"internal_node_id":"0.0-2.0-0.60"},{"rt":1591,"stimulus":"images/Tree/With_Backgrounds/difficulty7_image7.png","response":6,"category":"Tree","background_difficulty":"7","image_path":"images/Tree/With_Backgrounds/difficulty7_image7.png","trial_type":"image-button-response","trial_index":63,"time_elapsed":144696,"internal_node_id":"0.0-2.0-0.61"},{"rt":1893,"stimulus":"images/Cat/With_Backgrounds/difficulty7_image5.png","response":3,"category":"Cat","background_difficulty":"7","image_path":"images/Cat/With_Backgrounds/difficulty7_image5.png","trial_type":"image-button-response","trial_index":64,"time_elapsed":146600,"internal_node_id":"0.0-2.0-0.62"},{"rt":1713,"stimulus":"images/Other/With_Backgrounds/difficulty2_image0.png","response":7,"category":"Other","background_difficulty":"2","image_path":"images/Other/With_Backgrounds/difficulty2_image0.png","trial_type":"image-button-response","trial_index":65,"time_elapsed":148322,"internal_node_id":"0.0-2.0-0.63"},{"rt":2105,"stimulus":"images/Car/With_Backgrounds/difficulty7_image6.png","response":2,"category":"Car","background_difficulty":"7","image_path":"images/Car/With_Backgrounds/difficulty7_image6.png","trial_type":"image-button-response","trial_index":66,"time_elapsed":150438,"internal_node_id":"0.0-2.0-0.64"},{"rt":1568,"stimulus":"images/Human/With_Backgrounds/difficulty7_image6.png","response":5,"category":"Human","background_difficulty":"7","image_path":"images/Human/With_Backgrounds/difficulty7_image6.png","trial_type":"image-button-response","trial_index":67,"time_elapsed":152020,"internal_node_id":"0.0-2.0-0.65"},{"rt":1529,"stimulus":"images/Car/With_Backgrounds/difficulty0_image5.png","response":2,"category":"Car","background_difficulty":"0","image_path":"images/Car/With_Backgrounds/difficulty0_image5.png","trial_type":"image-button-response","trial_index":68,"time_elapsed":153561,"internal_node_id":"0.0-2.0-0.66"},{"rt":1609,"stimulus":"images/Car/With_Backgrounds/difficulty5_image1.png","response":2,"category":"Car","background_difficulty":"5","image_path":"images/Car/With_Backgrounds/difficulty5_image1.png","trial_type":"image-button-response","trial_index":69,"time_elapsed":155178,"internal_node_id":"0.0-2.0-0.67"},{"rt":2475,"stimulus":"images/Car/With_Backgrounds/difficulty4_image3.png","response":2,"category":"Car","background_difficulty":"4","image_path":"images/Car/With_Backgrounds/difficulty4_image3.png","trial_type":"image-button-response","trial_index":70,"time_elapsed":157662,"internal_node_id":"0.0-2.0-0.68"},{"rt":1560,"stimulus":"images/Boat/With_Backgrounds/difficulty0_image2.png","response":0,"category":"Boat","background_difficulty":"0","image_path":"images/Boat/With_Backgrounds/difficulty0_image2.png","trial_type":"image-button-response","trial_index":71,"time_elapsed":159230,"internal_node_id":"0.0-2.0-0.69"},{"rt":2398,"stimulus":"images/Broccoli/With_Backgrounds/difficulty1_image8.png","response":1,"category":"Broccoli","background_difficulty":"1","image_path":"images/Broccoli/With_Backgrounds/difficulty1_image8.png","trial_type":"image-button-response","trial_index":72,"time_elapsed":161637,"internal_node_id":"0.0-2.0-0.70"},{"rt":1620,"stimulus":"images/Tree/With_Backgrounds/difficulty3_image3.png","response":6,"category":"Tree","background_difficulty":"3","image_path":"images/Tree/With_Backgrounds/difficulty3_image3.png","trial_type":"image-button-response","trial_index":73,"time_elapsed":163265,"internal_node_id":"0.0-2.0-0.71"},{"rt":1787,"stimulus":["<h2>Press the button below to end experiment.</h2><p>Thank you for participating!</p>"],"response":0,"trial_type":"html-button-response","trial_index":74,"time_elapsed":165057,"internal_node_id":"0.0-3.0"}]