[{"success":true,"timeout":false,"failed_images":[],"failed_audio":[],"failed_video":[],"trial_type":"preload","trial_index":0,"time_elapsed":1456,"internal_node_id":"0.0-0.0"},{"rt":7241,"stimulus":["<h2>Noisy background image classification</h2><p>In this experiment you will briefly see images on top of colored squares of various sizes.</p><p>Your task is to report what each image is, selecting \"None of the Above\" if none of the given options are correct.</p> <p>The possible options are <strong>Boat</strong>, <strong>Broccoli</strong>, <strong>Car</strong>, <strong>Cat</strong>, <strong>Dog</strong>, <strong>Human</strong>, <strong>Tree</strong>, and <strong>None of the Above</strong>"],"response":0,"trial_type":"html-button-response","trial_index":1,"time_elapsed":8699,"internal_node_id":"0.0-1.0"},{"rt":2866,"stimulus":"images/Dog/With_Backgrounds/difficulty7_image9.png","response":4,"category":"Dog","background_difficulty":"7","image_path":"images/Dog/With_Backgrounds/difficulty7_image9.png","trial_type":"image-button-response","trial_index":2,"time_elapsed":11581,"internal_node_id":"0.0-2.0-0.0"},{"rt":1930,"stimulus":"images/Human/With_Backgrounds/difficulty6_image1.png","response":5,"category":"Human","background_difficulty":"6","image_path":"images/Human/With_Backgrounds/difficulty6_image1.png","trial_type":"image-button-response","trial_index":3,"time_elapsed":13514,"internal_node_id":"0.0-2.0-0.1"},{"rt":1791,"stimulus":"images/Cat/With_Backgrounds/difficulty6_image2.png","response":3,"category":"Cat","background_difficulty":"6","image_path":"images/Cat/With_Backgrounds/difficulty6_image2.png","trial_type":"image-button-response","trial_index":4,"time_elapsed":15308,"internal_node_id":"0.0-2.0-0.2"},{"rt":1530,"stimulus":"images/Human/With_Backgrounds/difficulty7_image7.png","response":5,"category":"Human","background_difficulty":"7","image_path":"images/Human/With_Backgrounds/difficulty7_image7.png","trial_type":"image-button-response","trial_index":5,"time_elapsed":16841,"internal_node_id":"0.0-2.0-0.3"},{"rt":1296,"stimulus":"images/Cat/With_Backgrounds/difficulty2_image1.png","response":3,"category":"Cat","background_difficulty":"2","image_path":"images/Cat/With_Backgrounds/difficulty2_image1.png","trial_type":"image-button-response","trial_index":6,"time_elapsed":18140,"internal_node_id":"0.0-2.0-0.4"},{"rt":1102,"stimulus":"images/Dog/With_Backgrounds/difficulty3_image8.png","response":4,"category":"Dog","background_difficulty":"3","image_path":"images/Dog/With_Backgrounds/difficulty3_image8.png","trial_type":"image-button-response","trial_index":7,"time_elapsed":19245,"internal_node_id":"0.0-2.0-0.5"},{"rt":4317,"stimulus":"images/Boat/With_Backgrounds/difficulty1_image7.png","response":0,"category":"Boat","background_difficulty":"1","image_path":"images/Boat/With_Backgrounds/difficulty1_image7.png","trial_type":"image-button-response","trial_index":8,"time_elapsed":23565,"internal_node_id":"0.0-2.0-0.6"},{"rt":1352,"stimulus":"images/Cat/With_Backgrounds/difficulty8_image8.png","response":3,"category":"Cat","background_difficulty":"8","image_path":"images/Cat/With_Backgrounds/difficulty8_image8.png","trial_type":"image-button-response","trial_index":9,"time_elapsed":24920,"internal_node_id":"0.0-2.0-0.7"},{"rt":1661,"stimulus":"images/Boat/With_Backgrounds/difficulty3_image6.png","response":0,"category":"Boat","background_difficulty":"3","image_path":"images/Boat/With_Backgrounds/difficulty3_image6.png","trial_type":"image-button-response","trial_index":10,"time_elapsed":26584,"internal_node_id":"0.0-2.0-0.8"},{"rt":1375,"stimulus":"images/Boat/With_Backgrounds/difficulty7_image1.png","response":0,"category":"Boat","background_difficulty":"7","image_path":"images/Boat/With_Backgrounds/difficulty7_image1.png","trial_type":"image-button-response","trial_index":11,"time_elapsed":27961,"internal_node_id":"0.0-2.0-0.9"},{"rt":1556,"stimulus":"images/Cat/With_Backgrounds/difficulty1_image5.png","response":3,"category":"Cat","background_difficulty":"1","image_path":"images/Cat/With_Backgrounds/difficulty1_image5.png","trial_type":"image-button-response","trial_index":12,"time_elapsed":29520,"internal_node_id":"0.0-2.0-0.10"},{"rt":1790,"stimulus":"images/Human/With_Backgrounds/difficulty4_image0.png","response":5,"category":"Human","background_difficulty":"4","image_path":"images/Human/With_Backgrounds/difficulty4_image0.png","trial_type":"image-button-response","trial_index":13,"time_elapsed":31312,"internal_node_id":"0.0-2.0-0.11"},{"rt":1358,"stimulus":"images/Cat/With_Backgrounds/difficulty4_image9.png","response":3,"category":"Cat","background_difficulty":"4","image_path":"images/Cat/With_Backgrounds/difficulty4_image9.png","trial_type":"image-button-response","trial_index":14,"time_elapsed":32672,"internal_node_id":"0.0-2.0-0.12"},{"rt":2326,"stimulus":"images/Other/With_Backgrounds/difficulty2_image4.png","response":7,"category":"Other","background_difficulty":"2","image_path":"images/Other/With_Backgrounds/difficulty2_image4.png","trial_type":"image-button-response","trial_index":15,"time_elapsed":35001,"internal_node_id":"0.0-2.0-0.13"},{"rt":987,"stimulus":"images/Other/With_Backgrounds/difficulty0_image6.png","response":7,"category":"Other","background_difficulty":"0","image_path":"images/Other/With_Backgrounds/difficulty0_image6.png","trial_type":"image-button-response","trial_index":16,"time_elapsed":35992,"internal_node_id":"0.0-2.0-0.14"},{"rt":1648,"stimulus":"images/Car/With_Backgrounds/difficulty8_image8.png","response":2,"category":"Car","background_difficulty":"8","image_path":"images/Car/With_Backgrounds/difficulty8_image8.png","trial_type":"image-button-response","trial_index":17,"time_elapsed":37642,"internal_node_id":"0.0-2.0-0.15"},{"rt":2470,"stimulus":"images/Tree/With_Backgrounds/difficulty8_image8.png","response":6,"category":"Tree","background_difficulty":"8","image_path":"images/Tree/With_Backgrounds/difficulty8_image8.png","trial_type":"image-button-response","trial_index":18,"time_elapsed":40114,"internal_node_id":"0.0-2.0-0.16"},{"rt":1193,"stimulus":"images/Dog/With_Backgrounds/difficulty4_image6.png","response":4,"category":"Dog","background_difficulty":"4","image_path":"images/Dog/With_Backgrounds/difficulty4_image6.png","trial_type":"image-button-response","trial_index":19,"time_elapsed":41310,"internal_node_id":"0.0-2.0-0.17"},{"rt":2445,"stimulus":"images/Other/With_Backgrounds/difficulty6_image5.png","response":7,"category":"Other","background_difficulty":"6","image_path":"images/Other/With_Backgrounds/difficulty6_image5.png","trial_type":"image-button-response","trial_index":20,"time_elapsed":43757,"internal_node_id":"0.0-2.0-0.18"},{"rt":1258,"stimulus":"images/Human/With_Backgrounds/difficulty8_image9.png","response":5,"category":"Human","background_difficulty":"8","image_path":"images/Human/With_Backgrounds/difficulty8_image9.png","trial_type":"image-button-response","trial_index":21,"time_elapsed":45018,"internal_node_id":"0.0-2.0-0.19"},{"rt":1482,"stimulus":"images/Cat/With_Backgrounds/difficulty7_image4.png","response":3,"category":"Cat","background_difficulty":"7","image_path":"images/Cat/With_Backgrounds/difficulty7_image4.png","trial_type":"image-button-response","trial_index":22,"time_elapsed":46503,"internal_node_id":"0.0-2.0-0.20"},{"rt":1729,"stimulus":"images/Other/With_Backgrounds/difficulty1_image3.png","response":7,"category":"Other","background_difficulty":"1","image_path":"images/Other/With_Backgrounds/difficulty1_image3.png","trial_type":"image-button-response","trial_index":23,"time_elapsed":48234,"internal_node_id":"0.0-2.0-0.21"},{"rt":1369,"stimulus":"images/Human/With_Backgrounds/difficulty0_image3.png","response":5,"category":"Human","background_difficulty":"0","image_path":"images/Human/With_Backgrounds/difficulty0_image3.png","trial_type":"image-button-response","trial_index":24,"time_elapsed":49604,"internal_node_id":"0.0-2.0-0.22"},{"rt":1653,"stimulus":"images/Other/With_Backgrounds/difficulty4_image1.png","response":7,"category":"Other","background_difficulty":"4","image_path":"images/Other/With_Backgrounds/difficulty4_image1.png","trial_type":"image-button-response","trial_index":25,"time_elapsed":51259,"internal_node_id":"0.0-2.0-0.23"},{"rt":1578,"stimulus":"images/Other/With_Backgrounds/difficulty8_image0.png","response":7,"category":"Other","background_difficulty":"8","image_path":"images/Other/With_Backgrounds/difficulty8_image0.png","trial_type":"image-button-response","trial_index":26,"time_elapsed":52839,"internal_node_id":"0.0-2.0-0.24"},{"rt":2255,"stimulus":"images/Tree/With_Backgrounds/difficulty1_image3.png","response":6,"category":"Tree","background_difficulty":"1","image_path":"images/Tree/With_Backgrounds/difficulty1_image3.png","trial_type":"image-button-response","trial_index":27,"time_elapsed":55096,"internal_node_id":"0.0-2.0-0.25"},{"rt":1533,"stimulus":"images/Boat/With_Backgrounds/difficulty0_image4.png","response":0,"category":"Boat","background_difficulty":"0","image_path":"images/Boat/With_Backgrounds/difficulty0_image4.png","trial_type":"image-button-response","trial_index":28,"time_elapsed":56631,"internal_node_id":"0.0-2.0-0.26"},{"rt":1593,"stimulus":"images/Tree/With_Backgrounds/difficulty6_image4.png","response":6,"category":"Tree","background_difficulty":"6","image_path":"images/Tree/With_Backgrounds/difficulty6_image4.png","trial_type":"image-button-response","trial_index":29,"time_elapsed":58225,"internal_node_id":"0.0-2.0-0.27"},{"rt":1662,"stimulus":"images/Broccoli/With_Backgrounds/difficulty7_image0.png","response":1,"category":"Broccoli","background_difficulty":"7","image_path":"images/Broccoli/With_Backgrounds/difficulty7_image0.png","trial_type":"image-button-response","trial_index":30,"time_elapsed":59892,"internal_node_id":"0.0-2.0-0.28"},{"rt":1397,"stimulus":"images/Boat/With_Backgrounds/difficulty8_image8.png","response":0,"category":"Boat","background_difficulty":"8","image_path":"images/Boat/With_Backgrounds/difficulty8_image8.png","trial_type":"image-button-response","trial_index":31,"time_elapsed":61292,"internal_node_id":"0.0-2.0-0.29"},{"rt":3209,"stimulus":"images/Tree/With_Backgrounds/difficulty0_image0.png","response":6,"category":"Tree","background_difficulty":"0","image_path":"images/Tree/With_Backgrounds/difficulty0_image0.png","trial_type":"image-button-response","trial_index":32,"time_elapsed":64503,"internal_node_id":"0.0-2.0-0.30"},{"rt":1824,"stimulus":"images/Broccoli/With_Backgrounds/difficulty3_image8.png","response":1,"category":"Broccoli","background_difficulty":"3","image_path":"images/Broccoli/With_Backgrounds/difficulty3_image8.png","trial_type":"image-button-response","trial_index":33,"time_elapsed":66331,"internal_node_id":"0.0-2.0-0.31"},{"rt":1933,"stimulus":"images/Tree/With_Backgrounds/difficulty5_image9.png","response":6,"category":"Tree","background_difficulty":"5","image_path":"images/Tree/With_Backgrounds/difficulty5_image9.png","trial_type":"image-button-response","trial_index":34,"time_elapsed":68267,"internal_node_id":"0.0-2.0-0.32"},{"rt":973,"stimulus":"images/Tree/With_Backgrounds/difficulty3_image6.png","response":6,"category":"Tree","background_difficulty":"3","image_path":"images/Tree/With_Backgrounds/difficulty3_image6.png","trial_type":"image-button-response","trial_index":35,"time_elapsed":69242,"internal_node_id":"0.0-2.0-0.33"},{"rt":1153,"stimulus":"images/Other/With_Backgrounds/difficulty7_image2.png","response":7,"category":"Other","background_difficulty":"7","image_path":"images/Other/With_Backgrounds/difficulty7_image2.png","trial_type":"image-button-response","trial_index":36,"time_elapsed":70398,"internal_node_id":"0.0-2.0-0.34"},{"rt":1460,"stimulus":"images/Tree/With_Backgrounds/difficulty2_image7.png","response":6,"category":"Tree","background_difficulty":"2","image_path":"images/Tree/With_Backgrounds/difficulty2_image7.png","trial_type":"image-button-response","trial_index":37,"time_elapsed":71860,"internal_node_id":"0.0-2.0-0.35"},{"rt":1445,"stimulus":"images/Car/With_Backgrounds/difficulty0_image6.png","response":2,"category":"Car","background_difficulty":"0","image_path":"images/Car/With_Backgrounds/difficulty0_image6.png","trial_type":"image-button-response","trial_index":38,"time_elapsed":73307,"internal_node_id":"0.0-2.0-0.36"},{"rt":1353,"stimulus":"images/Other/With_Backgrounds/difficulty3_image7.png","response":7,"category":"Other","background_difficulty":"3","image_path":"images/Other/With_Backgrounds/difficulty3_image7.png","trial_type":"image-button-response","trial_index":39,"time_elapsed":74663,"internal_node_id":"0.0-2.0-0.37"},{"rt":1247,"stimulus":"images/Broccoli/With_Backgrounds/difficulty4_image7.png","response":1,"category":"Broccoli","background_difficulty":"4","image_path":"images/Broccoli/With_Backgrounds/difficulty4_image7.png","trial_type":"image-button-response","trial_index":40,"time_elapsed":75912,"internal_node_id":"0.0-2.0-0.38"},{"rt":1309,"stimulus":"images/Dog/With_Backgrounds/difficulty0_image4.png","response":4,"category":"Dog","background_difficulty":"0","image_path":"images/Dog/With_Backgrounds/difficulty0_image4.png","trial_type":"image-button-response","trial_index":41,"time_elapsed":77225,"internal_node_id":"0.0-2.0-0.39"},{"rt":1239,"stimulus":"images/Dog/With_Backgrounds/difficulty8_image2.png","response":4,"category":"Dog","background_difficulty":"8","image_path":"images/Dog/With_Backgrounds/difficulty8_image2.png","trial_type":"image-button-response","trial_index":42,"time_elapsed":78467,"internal_node_id":"0.0-2.0-0.40"},{"rt":1450,"stimulus":"images/Broccoli/With_Backgrounds/difficulty6_image5.png","response":1,"category":"Broccoli","background_difficulty":"6","image_path":"images/Broccoli/With_Backgrounds/difficulty6_image5.png","trial_type":"image-button-response","trial_index":43,"time_elapsed":79920,"internal_node_id":"0.0-2.0-0.41"},{"rt":1219,"stimulus":"images/Boat/With_Backgrounds/difficulty5_image0.png","response":0,"category":"Boat","background_difficulty":"5","image_path":"images/Boat/With_Backgrounds/difficulty5_image0.png","trial_type":"image-button-response","trial_index":44,"time_elapsed":81142,"internal_node_id":"0.0-2.0-0.42"},{"rt":1440,"stimulus":"images/Dog/With_Backgrounds/difficulty2_image0.png","response":4,"category":"Dog","background_difficulty":"2","image_path":"images/Dog/With_Backgrounds/difficulty2_image0.png","trial_type":"image-button-response","trial_index":45,"time_elapsed":82585,"internal_node_id":"0.0-2.0-0.43"},{"rt":1359,"stimulus":"images/Boat/With_Backgrounds/difficulty6_image5.png","response":0,"category":"Boat","background_difficulty":"6","image_path":"images/Boat/With_Backgrounds/difficulty6_image5.png","trial_type":"image-button-response","trial_index":46,"time_elapsed":83947,"internal_node_id":"0.0-2.0-0.44"},{"rt":1152,"stimulus":"images/Broccoli/With_Backgrounds/difficulty1_image6.png","response":1,"category":"Broccoli","background_difficulty":"1","image_path":"images/Broccoli/With_Backgrounds/difficulty1_image6.png","trial_type":"image-button-response","trial_index":47,"time_elapsed":85101,"internal_node_id":"0.0-2.0-0.45"},{"rt":1350,"stimulus":"images/Car/With_Backgrounds/difficulty5_image4.png","response":2,"category":"Car","background_difficulty":"5","image_path":"images/Car/With_Backgrounds/difficulty5_image4.png","trial_type":"image-button-response","trial_index":48,"time_elapsed":86453,"internal_node_id":"0.0-2.0-0.46"},{"rt":892,"stimulus":"images/Car/With_Backgrounds/difficulty4_image3.png","response":2,"category":"Car","background_difficulty":"4","image_path":"images/Car/With_Backgrounds/difficulty4_image3.png","trial_type":"image-button-response","trial_index":49,"time_elapsed":87348,"internal_node_id":"0.0-2.0-0.47"},{"rt":1336,"stimulus":"images/Cat/With_Backgrounds/difficulty0_image0.png","response":3,"category":"Cat","background_difficulty":"0","image_path":"images/Cat/With_Backgrounds/difficulty0_image0.png","trial_type":"image-button-response","trial_index":50,"time_elapsed":88687,"internal_node_id":"0.0-2.0-0.48"},{"rt":1494,"stimulus":"images/Car/With_Backgrounds/difficulty6_image5.png","response":2,"category":"Car","background_difficulty":"6","image_path":"images/Car/With_Backgrounds/difficulty6_image5.png","trial_type":"image-button-response","trial_index":51,"time_elapsed":90185,"internal_node_id":"0.0-2.0-0.49"},{"rt":1304,"stimulus":"images/Broccoli/With_Backgrounds/difficulty5_image9.png","response":1,"category":"Broccoli","background_difficulty":"5","image_path":"images/Broccoli/With_Backgrounds/difficulty5_image9.png","trial_type":"image-button-response","trial_index":52,"time_elapsed":91491,"internal_node_id":"0.0-2.0-0.50"},{"rt":1987,"stimulus":"images/Human/With_Backgrounds/difficulty5_image4.png","response":5,"category":"Human","background_difficulty":"5","image_path":"images/Human/With_Backgrounds/difficulty5_image4.png","trial_type":"image-button-response","trial_index":53,"time_elapsed":93482,"internal_node_id":"0.0-2.0-0.51"},{"rt":1480,"stimulus":"images/Car/With_Backgrounds/difficulty1_image9.png","response":2,"category":"Car","background_difficulty":"1","image_path":"images/Car/With_Backgrounds/difficulty1_image9.png","trial_type":"image-button-response","trial_index":54,"time_elapsed":94964,"internal_node_id":"0.0-2.0-0.52"},{"rt":1055,"stimulus":"images/Car/With_Backgrounds/difficulty7_image2.png","response":2,"category":"Car","background_difficulty":"7","image_path":"images/Car/With_Backgrounds/difficulty7_image2.png","trial_type":"image-button-response","trial_index":55,"time_elapsed":96021,"internal_node_id":"0.0-2.0-0.53"},{"rt":1267,"stimulus":"images/Dog/With_Backgrounds/difficulty6_image3.png","response":4,"category":"Dog","background_difficulty":"6","image_path":"images/Dog/With_Backgrounds/difficulty6_image3.png","trial_type":"image-button-response","trial_index":56,"time_elapsed":97290,"internal_node_id":"0.0-2.0-0.54"},{"rt":1165,"stimulus":"images/Human/With_Backgrounds/difficulty1_image2.png","response":5,"category":"Human","background_difficulty":"1","image_path":"images/Human/With_Backgrounds/difficulty1_image2.png","trial_type":"image-button-response","trial_index":57,"time_elapsed":98457,"internal_node_id":"0.0-2.0-0.55"},{"rt":1225,"stimulus":"images/Boat/With_Backgrounds/difficulty2_image2.png","response":0,"category":"Boat","background_difficulty":"2","image_path":"images/Boat/With_Backgrounds/difficulty2_image2.png","trial_type":"image-button-response","trial_index":58,"time_elapsed":99685,"internal_node_id":"0.0-2.0-0.56"},{"rt":1153,"stimulus":"images/Human/With_Backgrounds/difficulty3_image5.png","response":5,"category":"Human","background_difficulty":"3","image_path":"images/Human/With_Backgrounds/difficulty3_image5.png","trial_type":"image-button-response","trial_index":59,"time_elapsed":100840,"internal_node_id":"0.0-2.0-0.57"},{"rt":992,"stimulus":"images/Human/With_Backgrounds/difficulty2_image8.png","response":5,"category":"Human","background_difficulty":"2","image_path":"images/Human/With_Backgrounds/difficulty2_image8.png","trial_type":"image-button-response","trial_index":60,"time_elapsed":101834,"internal_node_id":"0.0-2.0-0.58"},{"rt":1110,"stimulus":"images/Dog/With_Backgrounds/difficulty1_image1.png","response":4,"category":"Dog","background_difficulty":"1","image_path":"images/Dog/With_Backgrounds/difficulty1_image1.png","trial_type":"image-button-response","trial_index":61,"time_elapsed":102947,"internal_node_id":"0.0-2.0-0.59"},{"rt":3014,"stimulus":"images/Car/With_Backgrounds/difficulty3_image7.png","response":2,"category":"Car","background_difficulty":"3","image_path":"images/Car/With_Backgrounds/difficulty3_image7.png","trial_type":"image-button-response","trial_index":62,"time_elapsed":105963,"internal_node_id":"0.0-2.0-0.60"},{"rt":1892,"stimulus":"images/Other/With_Backgrounds/difficulty5_image8.png","response":7,"category":"Other","background_difficulty":"5","image_path":"images/Other/With_Backgrounds/difficulty5_image8.png","trial_type":"image-button-response","trial_index":63,"time_elapsed":107857,"internal_node_id":"0.0-2.0-0.61"},{"rt":1274,"stimulus":"images/Cat/With_Backgrounds/difficulty3_image7.png","response":3,"category":"Cat","background_difficulty":"3","image_path":"images/Cat/With_Backgrounds/difficulty3_image7.png","trial_type":"image-button-response","trial_index":64,"time_elapsed":109132,"internal_node_id":"0.0-2.0-0.62"},{"rt":2036,"stimulus":"images/Tree/With_Backgrounds/difficulty4_image5.png","response":6,"category":"Tree","background_difficulty":"4","image_path":"images/Tree/With_Backgrounds/difficulty4_image5.png","trial_type":"image-button-response","trial_index":65,"time_elapsed":111171,"internal_node_id":"0.0-2.0-0.63"},{"rt":1367,"stimulus":"images/Broccoli/With_Backgrounds/difficulty2_image4.png","response":1,"category":"Broccoli","background_difficulty":"2","image_path":"images/Broccoli/With_Backgrounds/difficulty2_image4.png","trial_type":"image-button-response","trial_index":66,"time_elapsed":112540,"internal_node_id":"0.0-2.0-0.64"},{"rt":1530,"stimulus":"images/Dog/With_Backgrounds/difficulty5_image7.png","response":4,"category":"Dog","background_difficulty":"5","image_path":"images/Dog/With_Backgrounds/difficulty5_image7.png","trial_type":"image-button-response","trial_index":67,"time_elapsed":114072,"internal_node_id":"0.0-2.0-0.65"},{"rt":1073,"stimulus":"images/Cat/With_Backgrounds/difficulty5_image3.png","response":3,"category":"Cat","background_difficulty":"5","image_path":"images/Cat/With_Backgrounds/difficulty5_image3.png","trial_type":"image-button-response","trial_index":68,"time_elapsed":115148,"internal_node_id":"0.0-2.0-0.66"},{"rt":1587,"stimulus":"images/Tree/With_Backgrounds/difficulty7_image1.png","response":6,"category":"Tree","background_difficulty":"7","image_path":"images/Tree/With_Backgrounds/difficulty7_image1.png","trial_type":"image-button-response","trial_index":69,"time_elapsed":116737,"internal_node_id":"0.0-2.0-0.67"},{"rt":1408,"stimulus":"images/Boat/With_Backgrounds/difficulty4_image9.png","response":0,"category":"Boat","background_difficulty":"4","image_path":"images/Boat/With_Backgrounds/difficulty4_image9.png","trial_type":"image-button-response","trial_index":70,"time_elapsed":118149,"internal_node_id":"0.0-2.0-0.68"},{"rt":3821,"stimulus":"images/Broccoli/With_Backgrounds/difficulty0_image3.png","response":1,"category":"Broccoli","background_difficulty":"0","image_path":"images/Broccoli/With_Backgrounds/difficulty0_image3.png","trial_type":"image-button-response","trial_index":71,"time_elapsed":121972,"internal_node_id":"0.0-2.0-0.69"},{"rt":1997,"stimulus":"images/Car/With_Backgrounds/difficulty2_image1.png","response":2,"category":"Car","background_difficulty":"2","image_path":"images/Car/With_Backgrounds/difficulty2_image1.png","trial_type":"image-button-response","trial_index":72,"time_elapsed":123973,"internal_node_id":"0.0-2.0-0.70"},{"rt":1206,"stimulus":"images/Broccoli/With_Backgrounds/difficulty8_image1.png","response":1,"category":"Broccoli","background_difficulty":"8","image_path":"images/Broccoli/With_Backgrounds/difficulty8_image1.png","trial_type":"image-button-response","trial_index":73,"time_elapsed":125180,"internal_node_id":"0.0-2.0-0.71"},{"rt":1495,"stimulus":["<h2>Press the button below to end experiment.</h2><p>Thank you for participating!</p>"],"response":0,"trial_type":"html-button-response","trial_index":74,"time_elapsed":126677,"internal_node_id":"0.0-3.0"}]