[{"success":true,"timeout":false,"failed_images":[],"failed_audio":[],"failed_video":[],"trial_type":"preload","trial_index":0,"time_elapsed":1404,"internal_node_id":"0.0-0.0"},{"rt":8632,"stimulus":["<h2>Noisy background image classification</h2><p>In this experiment you will briefly see images on top of colored squares of various sizes.</p><p>Your task is to report what each image is, selecting \"None of the Above\" if none of the given options are correct.</p> <p>The possible options are <strong>Boat</strong>, <strong>Broccoli</strong>, <strong>Car</strong>, <strong>Cat</strong>, <strong>Dog</strong>, <strong>Human</strong>, <strong>Tree</strong>, and <strong>None of the Above</strong>"],"response":0,"trial_type":"html-button-response","trial_index":1,"time_elapsed":10042,"internal_node_id":"0.0-1.0"},{"rt":2844,"stimulus":"images/Tree/With_Backgrounds/difficulty4_image1.png","response":6,"category":"Tree","background_difficulty":"4","image_path":"images/Tree/With_Backgrounds/difficulty4_image1.png","trial_type":"image-button-response","trial_index":2,"time_elapsed":12903,"internal_node_id":"0.0-2.0-0.0"},{"rt":2057,"stimulus":"images/Car/With_Backgrounds/difficulty7_image7.png","response":2,"category":"Car","background_difficulty":"7","image_path":"images/Car/With_Backgrounds/difficulty7_image7.png","trial_type":"image-button-response","trial_index":3,"time_elapsed":14984,"internal_node_id":"0.0-2.0-0.1"},{"rt":1328,"stimulus":"images/Broccoli/With_Backgrounds/difficulty5_image1.png","response":1,"category":"Broccoli","background_difficulty":"5","image_path":"images/Broccoli/With_Backgrounds/difficulty5_image1.png","trial_type":"image-button-response","trial_index":4,"time_elapsed":16324,"internal_node_id":"0.0-2.0-0.2"},{"rt":2043,"stimulus":"images/Boat/With_Backgrounds/difficulty4_image3.png","response":0,"category":"Boat","background_difficulty":"4","image_path":"images/Boat/With_Backgrounds/difficulty4_image3.png","trial_type":"image-button-response","trial_index":5,"time_elapsed":18382,"internal_node_id":"0.0-2.0-0.3"},{"rt":1975,"stimulus":"images/Cat/With_Backgrounds/difficulty3_image8.png","response":3,"category":"Cat","background_difficulty":"3","image_path":"images/Cat/With_Backgrounds/difficulty3_image8.png","trial_type":"image-button-response","trial_index":6,"time_elapsed":20370,"internal_node_id":"0.0-2.0-0.4"},{"rt":1157,"stimulus":"images/Dog/With_Backgrounds/difficulty1_image2.png","response":4,"category":"Dog","background_difficulty":"1","image_path":"images/Dog/With_Backgrounds/difficulty1_image2.png","trial_type":"image-button-response","trial_index":7,"time_elapsed":21537,"internal_node_id":"0.0-2.0-0.5"},{"rt":1647,"stimulus":"images/Other/With_Backgrounds/difficulty8_image7.png","response":7,"category":"Other","background_difficulty":"8","image_path":"images/Other/With_Backgrounds/difficulty8_image7.png","trial_type":"image-button-response","trial_index":8,"time_elapsed":23199,"internal_node_id":"0.0-2.0-0.6"},{"rt":2071,"stimulus":"images/Boat/With_Backgrounds/difficulty0_image2.png","response":0,"category":"Boat","background_difficulty":"0","image_path":"images/Boat/With_Backgrounds/difficulty0_image2.png","trial_type":"image-button-response","trial_index":9,"time_elapsed":25277,"internal_node_id":"0.0-2.0-0.7"},{"rt":1284,"stimulus":"images/Boat/With_Backgrounds/difficulty2_image8.png","response":0,"category":"Boat","background_difficulty":"2","image_path":"images/Boat/With_Backgrounds/difficulty2_image8.png","trial_type":"image-button-response","trial_index":10,"time_elapsed":26571,"internal_node_id":"0.0-2.0-0.8"},{"rt":1485,"stimulus":"images/Cat/With_Backgrounds/difficulty0_image6.png","response":3,"category":"Cat","background_difficulty":"0","image_path":"images/Cat/With_Backgrounds/difficulty0_image6.png","trial_type":"image-button-response","trial_index":11,"time_elapsed":28067,"internal_node_id":"0.0-2.0-0.9"},{"rt":1373,"stimulus":"images/Dog/With_Backgrounds/difficulty7_image8.png","response":4,"category":"Dog","background_difficulty":"7","image_path":"images/Dog/With_Backgrounds/difficulty7_image8.png","trial_type":"image-button-response","trial_index":12,"time_elapsed":29451,"internal_node_id":"0.0-2.0-0.10"},{"rt":1405,"stimulus":"images/Car/With_Backgrounds/difficulty2_image5.png","response":2,"category":"Car","background_difficulty":"2","image_path":"images/Car/With_Backgrounds/difficulty2_image5.png","trial_type":"image-button-response","trial_index":13,"time_elapsed":30868,"internal_node_id":"0.0-2.0-0.11"},{"rt":1300,"stimulus":"images/Broccoli/With_Backgrounds/difficulty7_image0.png","response":1,"category":"Broccoli","background_difficulty":"7","image_path":"images/Broccoli/With_Backgrounds/difficulty7_image0.png","trial_type":"image-button-response","trial_index":14,"time_elapsed":32177,"internal_node_id":"0.0-2.0-0.12"},{"rt":1347,"stimulus":"images/Car/With_Backgrounds/difficulty0_image8.png","response":2,"category":"Car","background_difficulty":"0","image_path":"images/Car/With_Backgrounds/difficulty0_image8.png","trial_type":"image-button-response","trial_index":15,"time_elapsed":33535,"internal_node_id":"0.0-2.0-0.13"},{"rt":1311,"stimulus":"images/Dog/With_Backgrounds/difficulty8_image3.png","response":4,"category":"Dog","background_difficulty":"8","image_path":"images/Dog/With_Backgrounds/difficulty8_image3.png","trial_type":"image-button-response","trial_index":16,"time_elapsed":34860,"internal_node_id":"0.0-2.0-0.14"},{"rt":1251,"stimulus":"images/Human/With_Backgrounds/difficulty7_image9.png","response":5,"category":"Human","background_difficulty":"7","image_path":"images/Human/With_Backgrounds/difficulty7_image9.png","trial_type":"image-button-response","trial_index":17,"time_elapsed":36124,"internal_node_id":"0.0-2.0-0.15"},{"rt":1210,"stimulus":"images/Broccoli/With_Backgrounds/difficulty1_image8.png","response":1,"category":"Broccoli","background_difficulty":"1","image_path":"images/Broccoli/With_Backgrounds/difficulty1_image8.png","trial_type":"image-button-response","trial_index":18,"time_elapsed":37343,"internal_node_id":"0.0-2.0-0.16"},{"rt":1237,"stimulus":"images/Car/With_Backgrounds/difficulty6_image4.png","response":2,"category":"Car","background_difficulty":"6","image_path":"images/Car/With_Backgrounds/difficulty6_image4.png","trial_type":"image-button-response","trial_index":19,"time_elapsed":38591,"internal_node_id":"0.0-2.0-0.17"},{"rt":1317,"stimulus":"images/Dog/With_Backgrounds/difficulty6_image5.png","response":4,"category":"Dog","background_difficulty":"6","image_path":"images/Dog/With_Backgrounds/difficulty6_image5.png","trial_type":"image-button-response","trial_index":20,"time_elapsed":39922,"internal_node_id":"0.0-2.0-0.18"},{"rt":1540,"stimulus":"images/Other/With_Backgrounds/difficulty3_image5.png","response":7,"category":"Other","background_difficulty":"3","image_path":"images/Other/With_Backgrounds/difficulty3_image5.png","trial_type":"image-button-response","trial_index":21,"time_elapsed":41472,"internal_node_id":"0.0-2.0-0.19"},{"rt":1516,"stimulus":"images/Broccoli/With_Backgrounds/difficulty6_image7.png","response":1,"category":"Broccoli","background_difficulty":"6","image_path":"images/Broccoli/With_Backgrounds/difficulty6_image7.png","trial_type":"image-button-response","trial_index":22,"time_elapsed":42998,"internal_node_id":"0.0-2.0-0.20"},{"rt":1725,"stimulus":"images/Cat/With_Backgrounds/difficulty4_image9.png","response":3,"category":"Cat","background_difficulty":"4","image_path":"images/Cat/With_Backgrounds/difficulty4_image9.png","trial_type":"image-button-response","trial_index":23,"time_elapsed":44733,"internal_node_id":"0.0-2.0-0.21"},{"rt":1572,"stimulus":"images/Boat/With_Backgrounds/difficulty5_image1.png","response":0,"category":"Boat","background_difficulty":"5","image_path":"images/Boat/With_Backgrounds/difficulty5_image1.png","trial_type":"image-button-response","trial_index":24,"time_elapsed":46316,"internal_node_id":"0.0-2.0-0.22"},{"rt":1626,"stimulus":"images/Cat/With_Backgrounds/difficulty7_image3.png","response":3,"category":"Cat","background_difficulty":"7","image_path":"images/Cat/With_Backgrounds/difficulty7_image3.png","trial_type":"image-button-response","trial_index":25,"time_elapsed":47953,"internal_node_id":"0.0-2.0-0.23"},{"rt":1906,"stimulus":"images/Other/With_Backgrounds/difficulty6_image8.png","response":7,"category":"Other","background_difficulty":"6","image_path":"images/Other/With_Backgrounds/difficulty6_image8.png","trial_type":"image-button-response","trial_index":26,"time_elapsed":49868,"internal_node_id":"0.0-2.0-0.24"},{"rt":1897,"stimulus":"images/Dog/With_Backgrounds/difficulty2_image4.png","response":4,"category":"Dog","background_difficulty":"2","image_path":"images/Dog/With_Backgrounds/difficulty2_image4.png","trial_type":"image-button-response","trial_index":27,"time_elapsed":51774,"internal_node_id":"0.0-2.0-0.25"},{"rt":1203,"stimulus":"images/Human/With_Backgrounds/difficulty0_image3.png","response":5,"category":"Human","background_difficulty":"0","image_path":"images/Human/With_Backgrounds/difficulty0_image3.png","trial_type":"image-button-response","trial_index":28,"time_elapsed":52989,"internal_node_id":"0.0-2.0-0.26"},{"rt":1259,"stimulus":"images/Broccoli/With_Backgrounds/difficulty8_image5.png","response":1,"category":"Broccoli","background_difficulty":"8","image_path":"images/Broccoli/With_Backgrounds/difficulty8_image5.png","trial_type":"image-button-response","trial_index":29,"time_elapsed":54261,"internal_node_id":"0.0-2.0-0.27"},{"rt":1735,"stimulus":"images/Car/With_Backgrounds/difficulty4_image0.png","response":2,"category":"Car","background_difficulty":"4","image_path":"images/Car/With_Backgrounds/difficulty4_image0.png","trial_type":"image-button-response","trial_index":30,"time_elapsed":56006,"internal_node_id":"0.0-2.0-0.28"},{"rt":1156,"stimulus":"images/Broccoli/With_Backgrounds/difficulty3_image4.png","response":1,"category":"Broccoli","background_difficulty":"3","image_path":"images/Broccoli/With_Backgrounds/difficulty3_image4.png","trial_type":"image-button-response","trial_index":31,"time_elapsed":57176,"internal_node_id":"0.0-2.0-0.29"},{"rt":1367,"stimulus":"images/Car/With_Backgrounds/difficulty8_image3.png","response":2,"category":"Car","background_difficulty":"8","image_path":"images/Car/With_Backgrounds/difficulty8_image3.png","trial_type":"image-button-response","trial_index":32,"time_elapsed":58560,"internal_node_id":"0.0-2.0-0.30"},{"rt":1206,"stimulus":"images/Cat/With_Backgrounds/difficulty1_image2.png","response":3,"category":"Cat","background_difficulty":"1","image_path":"images/Cat/With_Backgrounds/difficulty1_image2.png","trial_type":"image-button-response","trial_index":33,"time_elapsed":59778,"internal_node_id":"0.0-2.0-0.31"},{"rt":1182,"stimulus":"images/Cat/With_Backgrounds/difficulty2_image0.png","response":3,"category":"Cat","background_difficulty":"2","image_path":"images/Cat/With_Backgrounds/difficulty2_image0.png","trial_type":"image-button-response","trial_index":34,"time_elapsed":60975,"internal_node_id":"0.0-2.0-0.32"},{"rt":1560,"stimulus":"images/Other/With_Backgrounds/difficulty2_image2.png","response":7,"category":"Other","background_difficulty":"2","image_path":"images/Other/With_Backgrounds/difficulty2_image2.png","trial_type":"image-button-response","trial_index":35,"time_elapsed":62548,"internal_node_id":"0.0-2.0-0.33"},{"rt":1281,"stimulus":"images/Human/With_Backgrounds/difficulty3_image6.png","response":5,"category":"Human","background_difficulty":"3","image_path":"images/Human/With_Backgrounds/difficulty3_image6.png","trial_type":"image-button-response","trial_index":36,"time_elapsed":63840,"internal_node_id":"0.0-2.0-0.34"},{"rt":1306,"stimulus":"images/Human/With_Backgrounds/difficulty4_image2.png","response":5,"category":"Human","background_difficulty":"4","image_path":"images/Human/With_Backgrounds/difficulty4_image2.png","trial_type":"image-button-response","trial_index":37,"time_elapsed":65156,"internal_node_id":"0.0-2.0-0.35"},{"rt":826,"stimulus":"images/Human/With_Backgrounds/difficulty5_image4.png","response":5,"category":"Human","background_difficulty":"5","image_path":"images/Human/With_Backgrounds/difficulty5_image4.png","trial_type":"image-button-response","trial_index":38,"time_elapsed":65995,"internal_node_id":"0.0-2.0-0.36"},{"rt":1942,"stimulus":"images/Other/With_Backgrounds/difficulty0_image1.png","response":7,"category":"Other","background_difficulty":"0","image_path":"images/Other/With_Backgrounds/difficulty0_image1.png","trial_type":"image-button-response","trial_index":39,"time_elapsed":67947,"internal_node_id":"0.0-2.0-0.37"},{"rt":1886,"stimulus":"images/Human/With_Backgrounds/difficulty1_image8.png","response":5,"category":"Human","background_difficulty":"1","image_path":"images/Human/With_Backgrounds/difficulty1_image8.png","trial_type":"image-button-response","trial_index":40,"time_elapsed":69846,"internal_node_id":"0.0-2.0-0.38"},{"rt":864,"stimulus":"images/Human/With_Backgrounds/difficulty6_image0.png","response":5,"category":"Human","background_difficulty":"6","image_path":"images/Human/With_Backgrounds/difficulty6_image0.png","trial_type":"image-button-response","trial_index":41,"time_elapsed":70723,"internal_node_id":"0.0-2.0-0.39"},{"rt":1791,"stimulus":"images/Boat/With_Backgrounds/difficulty7_image0.png","response":0,"category":"Boat","background_difficulty":"7","image_path":"images/Boat/With_Backgrounds/difficulty7_image0.png","trial_type":"image-button-response","trial_index":42,"time_elapsed":72524,"internal_node_id":"0.0-2.0-0.40"},{"rt":2045,"stimulus":"images/Other/With_Backgrounds/difficulty1_image4.png","response":7,"category":"Other","background_difficulty":"1","image_path":"images/Other/With_Backgrounds/difficulty1_image4.png","trial_type":"image-button-response","trial_index":43,"time_elapsed":74582,"internal_node_id":"0.0-2.0-0.41"},{"rt":1683,"stimulus":"images/Cat/With_Backgrounds/difficulty8_image5.png","response":3,"category":"Cat","background_difficulty":"8","image_path":"images/Cat/With_Backgrounds/difficulty8_image5.png","trial_type":"image-button-response","trial_index":44,"time_elapsed":76278,"internal_node_id":"0.0-2.0-0.42"},{"rt":1603,"stimulus":"images/Dog/With_Backgrounds/difficulty4_image0.png","response":4,"category":"Dog","background_difficulty":"4","image_path":"images/Dog/With_Backgrounds/difficulty4_image0.png","trial_type":"image-button-response","trial_index":45,"time_elapsed":77891,"internal_node_id":"0.0-2.0-0.43"},{"rt":1624,"stimulus":"images/Broccoli/With_Backgrounds/difficulty0_image6.png","response":1,"category":"Broccoli","background_difficulty":"0","image_path":"images/Broccoli/With_Backgrounds/difficulty0_image6.png","trial_type":"image-button-response","trial_index":46,"time_elapsed":79526,"internal_node_id":"0.0-2.0-0.44"},{"rt":1688,"stimulus":"images/Boat/With_Backgrounds/difficulty3_image5.png","response":0,"category":"Boat","background_difficulty":"3","image_path":"images/Boat/With_Backgrounds/difficulty3_image5.png","trial_type":"image-button-response","trial_index":47,"time_elapsed":81223,"internal_node_id":"0.0-2.0-0.45"},{"rt":2338,"stimulus":"images/Tree/With_Backgrounds/difficulty7_image8.png","response":6,"category":"Tree","background_difficulty":"7","image_path":"images/Tree/With_Backgrounds/difficulty7_image8.png","trial_type":"image-button-response","trial_index":48,"time_elapsed":83575,"internal_node_id":"0.0-2.0-0.46"},{"rt":5056,"stimulus":"images/Boat/With_Backgrounds/difficulty6_image7.png","response":7,"category":"Boat","background_difficulty":"6","image_path":"images/Boat/With_Backgrounds/difficulty6_image7.png","trial_type":"image-button-response","trial_index":49,"time_elapsed":88639,"internal_node_id":"0.0-2.0-0.47"},{"rt":1776,"stimulus":"images/Boat/With_Backgrounds/difficulty8_image6.png","response":0,"category":"Boat","background_difficulty":"8","image_path":"images/Boat/With_Backgrounds/difficulty8_image6.png","trial_type":"image-button-response","trial_index":50,"time_elapsed":90426,"internal_node_id":"0.0-2.0-0.48"},{"rt":1575,"stimulus":"images/Human/With_Backgrounds/difficulty8_image5.png","response":5,"category":"Human","background_difficulty":"8","image_path":"images/Human/With_Backgrounds/difficulty8_image5.png","trial_type":"image-button-response","trial_index":51,"time_elapsed":92019,"internal_node_id":"0.0-2.0-0.49"},{"rt":1060,"stimulus":"images/Human/With_Backgrounds/difficulty2_image7.png","response":5,"category":"Human","background_difficulty":"2","image_path":"images/Human/With_Backgrounds/difficulty2_image7.png","trial_type":"image-button-response","trial_index":52,"time_elapsed":93090,"internal_node_id":"0.0-2.0-0.50"},{"rt":1779,"stimulus":"images/Tree/With_Backgrounds/difficulty2_image0.png","response":6,"category":"Tree","background_difficulty":"2","image_path":"images/Tree/With_Backgrounds/difficulty2_image0.png","trial_type":"image-button-response","trial_index":53,"time_elapsed":94879,"internal_node_id":"0.0-2.0-0.51"},{"rt":1539,"stimulus":"images/Tree/With_Backgrounds/difficulty3_image3.png","response":6,"category":"Tree","background_difficulty":"3","image_path":"images/Tree/With_Backgrounds/difficulty3_image3.png","trial_type":"image-button-response","trial_index":54,"time_elapsed":96428,"internal_node_id":"0.0-2.0-0.52"},{"rt":1159,"stimulus":"images/Tree/With_Backgrounds/difficulty5_image9.png","response":6,"category":"Tree","background_difficulty":"5","image_path":"images/Tree/With_Backgrounds/difficulty5_image9.png","trial_type":"image-button-response","trial_index":55,"time_elapsed":97596,"internal_node_id":"0.0-2.0-0.53"},{"rt":1177,"stimulus":"images/Car/With_Backgrounds/difficulty3_image6.png","response":2,"category":"Car","background_difficulty":"3","image_path":"images/Car/With_Backgrounds/difficulty3_image6.png","trial_type":"image-button-response","trial_index":56,"time_elapsed":98782,"internal_node_id":"0.0-2.0-0.54"},{"rt":1659,"stimulus":"images/Cat/With_Backgrounds/difficulty6_image4.png","response":3,"category":"Cat","background_difficulty":"6","image_path":"images/Cat/With_Backgrounds/difficulty6_image4.png","trial_type":"image-button-response","trial_index":57,"time_elapsed":100452,"internal_node_id":"0.0-2.0-0.55"},{"rt":2016,"stimulus":"images/Car/With_Backgrounds/difficulty5_image9.png","response":2,"category":"Car","background_difficulty":"5","image_path":"images/Car/With_Backgrounds/difficulty5_image9.png","trial_type":"image-button-response","trial_index":58,"time_elapsed":102479,"internal_node_id":"0.0-2.0-0.56"},{"rt":1261,"stimulus":"images/Dog/With_Backgrounds/difficulty3_image6.png","response":4,"category":"Dog","background_difficulty":"3","image_path":"images/Dog/With_Backgrounds/difficulty3_image6.png","trial_type":"image-button-response","trial_index":59,"time_elapsed":103749,"internal_node_id":"0.0-2.0-0.57"},{"rt":1190,"stimulus":"images/Cat/With_Backgrounds/difficulty5_image1.png","response":3,"category":"Cat","background_difficulty":"5","image_path":"images/Cat/With_Backgrounds/difficulty5_image1.png","trial_type":"image-button-response","trial_index":60,"time_elapsed":104949,"internal_node_id":"0.0-2.0-0.58"},{"rt":1591,"stimulus":"images/Tree/With_Backgrounds/difficulty8_image2.png","response":6,"category":"Tree","background_difficulty":"8","image_path":"images/Tree/With_Backgrounds/difficulty8_image2.png","trial_type":"image-button-response","trial_index":61,"time_elapsed":106552,"internal_node_id":"0.0-2.0-0.59"},{"rt":1647,"stimulus":"images/Other/With_Backgrounds/difficulty4_image0.png","response":7,"category":"Other","background_difficulty":"4","image_path":"images/Other/With_Backgrounds/difficulty4_image0.png","trial_type":"image-button-response","trial_index":62,"time_elapsed":108209,"internal_node_id":"0.0-2.0-0.60"},{"rt":1889,"stimulus":"images/Tree/With_Backgrounds/difficulty0_image5.png","response":1,"category":"Tree","background_difficulty":"0","image_path":"images/Tree/With_Backgrounds/difficulty0_image5.png","trial_type":"image-button-response","trial_index":63,"time_elapsed":110111,"internal_node_id":"0.0-2.0-0.61"},{"rt":944,"stimulus":"images/Broccoli/With_Backgrounds/difficulty2_image9.png","response":1,"category":"Broccoli","background_difficulty":"2","image_path":"images/Broccoli/With_Backgrounds/difficulty2_image9.png","trial_type":"image-button-response","trial_index":64,"time_elapsed":111063,"internal_node_id":"0.0-2.0-0.62"},{"rt":1532,"stimulus":"images/Other/With_Backgrounds/difficulty5_image3.png","response":7,"category":"Other","background_difficulty":"5","image_path":"images/Other/With_Backgrounds/difficulty5_image3.png","trial_type":"image-button-response","trial_index":65,"time_elapsed":112607,"internal_node_id":"0.0-2.0-0.63"},{"rt":1377,"stimulus":"images/Dog/With_Backgrounds/difficulty5_image7.png","response":4,"category":"Dog","background_difficulty":"5","image_path":"images/Dog/With_Backgrounds/difficulty5_image7.png","trial_type":"image-button-response","trial_index":66,"time_elapsed":113995,"internal_node_id":"0.0-2.0-0.64"},{"rt":1738,"stimulus":"images/Boat/With_Backgrounds/difficulty1_image9.png","response":0,"category":"Boat","background_difficulty":"1","image_path":"images/Boat/With_Backgrounds/difficulty1_image9.png","trial_type":"image-button-response","trial_index":67,"time_elapsed":115742,"internal_node_id":"0.0-2.0-0.65"},{"rt":1705,"stimulus":"images/Dog/With_Backgrounds/difficulty0_image1.png","response":4,"category":"Dog","background_difficulty":"0","image_path":"images/Dog/With_Backgrounds/difficulty0_image1.png","trial_type":"image-button-response","trial_index":68,"time_elapsed":117457,"internal_node_id":"0.0-2.0-0.66"},{"rt":1535,"stimulus":"images/Tree/With_Backgrounds/difficulty1_image6.png","response":6,"category":"Tree","background_difficulty":"1","image_path":"images/Tree/With_Backgrounds/difficulty1_image6.png","trial_type":"image-button-response","trial_index":69,"time_elapsed":119004,"internal_node_id":"0.0-2.0-0.67"},{"rt":1250,"stimulus":"images/Other/With_Backgrounds/difficulty7_image6.png","response":7,"category":"Other","background_difficulty":"7","image_path":"images/Other/With_Backgrounds/difficulty7_image6.png","trial_type":"image-button-response","trial_index":70,"time_elapsed":120265,"internal_node_id":"0.0-2.0-0.68"},{"rt":1451,"stimulus":"images/Tree/With_Backgrounds/difficulty6_image4.png","response":6,"category":"Tree","background_difficulty":"6","image_path":"images/Tree/With_Backgrounds/difficulty6_image4.png","trial_type":"image-button-response","trial_index":71,"time_elapsed":121729,"internal_node_id":"0.0-2.0-0.69"},{"rt":1546,"stimulus":"images/Broccoli/With_Backgrounds/difficulty4_image2.png","response":1,"category":"Broccoli","background_difficulty":"4","image_path":"images/Broccoli/With_Backgrounds/difficulty4_image2.png","trial_type":"image-button-response","trial_index":72,"time_elapsed":123290,"internal_node_id":"0.0-2.0-0.70"},{"rt":1813,"stimulus":"images/Car/With_Backgrounds/difficulty1_image2.png","response":2,"category":"Car","background_difficulty":"1","image_path":"images/Car/With_Backgrounds/difficulty1_image2.png","trial_type":"image-button-response","trial_index":73,"time_elapsed":125115,"internal_node_id":"0.0-2.0-0.71"},{"rt":1332,"stimulus":["<h2>Press the button below to end experiment.</h2><p>Thank you for participating!</p>"],"response":0,"trial_type":"html-button-response","trial_index":74,"time_elapsed":126453,"internal_node_id":"0.0-3.0"}]