[{"success":true,"timeout":false,"failed_images":[],"failed_audio":[],"failed_video":[],"trial_type":"preload","trial_index":0,"time_elapsed":1806,"internal_node_id":"0.0-0.0"},{"rt":17054,"stimulus":["<h2>Noisy background image classification</h2><p>In this experiment you will briefly see images on top of colored squares of various sizes.</p><p>Your task is to report what each image is, selecting \"None of the Above\" if none of the given options are correct.</p> <p>The possible options are <strong>Boat</strong>, <strong>Broccoli</strong>, <strong>Car</strong>, <strong>Cat</strong>, <strong>Dog</strong>, <strong>Human</strong>, <strong>Tree</strong>, and <strong>None of the Above</strong>"],"response":0,"trial_type":"html-button-response","trial_index":1,"time_elapsed":18862,"internal_node_id":"0.0-1.0"},{"rt":3835,"stimulus":"images/Human/With_Backgrounds/difficulty7_image1.png","response":5,"category":"Human","background_difficulty":"7","image_path":"images/Human/With_Backgrounds/difficulty7_image1.png","trial_type":"image-button-response","trial_index":2,"time_elapsed":22702,"internal_node_id":"0.0-2.0-0.0"},{"rt":1560,"stimulus":"images/Cat/With_Backgrounds/difficulty4_image3.png","response":3,"category":"Cat","background_difficulty":"4","image_path":"images/Cat/With_Backgrounds/difficulty4_image3.png","trial_type":"image-button-response","trial_index":3,"time_elapsed":24264,"internal_node_id":"0.0-2.0-0.1"},{"rt":1129,"stimulus":"images/Cat/With_Backgrounds/difficulty7_image5.png","response":3,"category":"Cat","background_difficulty":"7","image_path":"images/Cat/With_Backgrounds/difficulty7_image5.png","trial_type":"image-button-response","trial_index":4,"time_elapsed":25395,"internal_node_id":"0.0-2.0-0.2"},{"rt":1745,"stimulus":"images/Boat/With_Backgrounds/difficulty1_image9.png","response":0,"category":"Boat","background_difficulty":"1","image_path":"images/Boat/With_Backgrounds/difficulty1_image9.png","trial_type":"image-button-response","trial_index":5,"time_elapsed":27143,"internal_node_id":"0.0-2.0-0.3"},{"rt":1144,"stimulus":"images/Boat/With_Backgrounds/difficulty0_image6.png","response":0,"category":"Boat","background_difficulty":"0","image_path":"images/Boat/With_Backgrounds/difficulty0_image6.png","trial_type":"image-button-response","trial_index":6,"time_elapsed":28289,"internal_node_id":"0.0-2.0-0.4"},{"rt":3413,"stimulus":"images/Other/With_Backgrounds/difficulty4_image0.png","response":7,"category":"Other","background_difficulty":"4","image_path":"images/Other/With_Backgrounds/difficulty4_image0.png","trial_type":"image-button-response","trial_index":7,"time_elapsed":31705,"internal_node_id":"0.0-2.0-0.5"},{"rt":2406,"stimulus":"images/Cat/With_Backgrounds/difficulty1_image7.png","response":3,"category":"Cat","background_difficulty":"1","image_path":"images/Cat/With_Backgrounds/difficulty1_image7.png","trial_type":"image-button-response","trial_index":8,"time_elapsed":34113,"internal_node_id":"0.0-2.0-0.6"},{"rt":2096,"stimulus":"images/Tree/With_Backgrounds/difficulty2_image5.png","response":6,"category":"Tree","background_difficulty":"2","image_path":"images/Tree/With_Backgrounds/difficulty2_image5.png","trial_type":"image-button-response","trial_index":9,"time_elapsed":36212,"internal_node_id":"0.0-2.0-0.7"},{"rt":1828,"stimulus":"images/Broccoli/With_Backgrounds/difficulty7_image4.png","response":1,"category":"Broccoli","background_difficulty":"7","image_path":"images/Broccoli/With_Backgrounds/difficulty7_image4.png","trial_type":"image-button-response","trial_index":10,"time_elapsed":38042,"internal_node_id":"0.0-2.0-0.8"},{"rt":1466,"stimulus":"images/Boat/With_Backgrounds/difficulty6_image3.png","response":0,"category":"Boat","background_difficulty":"6","image_path":"images/Boat/With_Backgrounds/difficulty6_image3.png","trial_type":"image-button-response","trial_index":11,"time_elapsed":39510,"internal_node_id":"0.0-2.0-0.9"},{"rt":1620,"stimulus":"images/Tree/With_Backgrounds/difficulty4_image6.png","response":6,"category":"Tree","background_difficulty":"4","image_path":"images/Tree/With_Backgrounds/difficulty4_image6.png","trial_type":"image-button-response","trial_index":12,"time_elapsed":41133,"internal_node_id":"0.0-2.0-0.10"},{"rt":3458,"stimulus":"images/Other/With_Backgrounds/difficulty0_image9.png","response":7,"category":"Other","background_difficulty":"0","image_path":"images/Other/With_Backgrounds/difficulty0_image9.png","trial_type":"image-button-response","trial_index":13,"time_elapsed":44592,"internal_node_id":"0.0-2.0-0.11"},{"rt":1419,"stimulus":"images/Broccoli/With_Backgrounds/difficulty5_image3.png","response":1,"category":"Broccoli","background_difficulty":"5","image_path":"images/Broccoli/With_Backgrounds/difficulty5_image3.png","trial_type":"image-button-response","trial_index":14,"time_elapsed":46014,"internal_node_id":"0.0-2.0-0.12"},{"rt":1521,"stimulus":"images/Car/With_Backgrounds/difficulty5_image1.png","response":2,"category":"Car","background_difficulty":"5","image_path":"images/Car/With_Backgrounds/difficulty5_image1.png","trial_type":"image-button-response","trial_index":15,"time_elapsed":47538,"internal_node_id":"0.0-2.0-0.13"},{"rt":2280,"stimulus":"images/Tree/With_Backgrounds/difficulty1_image4.png","response":6,"category":"Tree","background_difficulty":"1","image_path":"images/Tree/With_Backgrounds/difficulty1_image4.png","trial_type":"image-button-response","trial_index":16,"time_elapsed":49821,"internal_node_id":"0.0-2.0-0.14"},{"rt":1496,"stimulus":"images/Car/With_Backgrounds/difficulty2_image5.png","response":2,"category":"Car","background_difficulty":"2","image_path":"images/Car/With_Backgrounds/difficulty2_image5.png","trial_type":"image-button-response","trial_index":17,"time_elapsed":51319,"internal_node_id":"0.0-2.0-0.15"},{"rt":1387,"stimulus":"images/Dog/With_Backgrounds/difficulty1_image9.png","response":4,"category":"Dog","background_difficulty":"1","image_path":"images/Dog/With_Backgrounds/difficulty1_image9.png","trial_type":"image-button-response","trial_index":18,"time_elapsed":52709,"internal_node_id":"0.0-2.0-0.16"},{"rt":1479,"stimulus":"images/Broccoli/With_Backgrounds/difficulty3_image0.png","response":1,"category":"Broccoli","background_difficulty":"3","image_path":"images/Broccoli/With_Backgrounds/difficulty3_image0.png","trial_type":"image-button-response","trial_index":19,"time_elapsed":54192,"internal_node_id":"0.0-2.0-0.17"},{"rt":1507,"stimulus":"images/Dog/With_Backgrounds/difficulty0_image7.png","response":4,"category":"Dog","background_difficulty":"0","image_path":"images/Dog/With_Backgrounds/difficulty0_image7.png","trial_type":"image-button-response","trial_index":20,"time_elapsed":55701,"internal_node_id":"0.0-2.0-0.18"},{"rt":1131,"stimulus":"images/Dog/With_Backgrounds/difficulty2_image8.png","response":4,"category":"Dog","background_difficulty":"2","image_path":"images/Dog/With_Backgrounds/difficulty2_image8.png","trial_type":"image-button-response","trial_index":21,"time_elapsed":56835,"internal_node_id":"0.0-2.0-0.19"},{"rt":1634,"stimulus":"images/Human/With_Backgrounds/difficulty4_image4.png","response":5,"category":"Human","background_difficulty":"4","image_path":"images/Human/With_Backgrounds/difficulty4_image4.png","trial_type":"image-button-response","trial_index":22,"time_elapsed":58473,"internal_node_id":"0.0-2.0-0.20"},{"rt":1042,"stimulus":"images/Human/With_Backgrounds/difficulty0_image3.png","response":5,"category":"Human","background_difficulty":"0","image_path":"images/Human/With_Backgrounds/difficulty0_image3.png","trial_type":"image-button-response","trial_index":23,"time_elapsed":59518,"internal_node_id":"0.0-2.0-0.21"},{"rt":2353,"stimulus":"images/Car/With_Backgrounds/difficulty1_image2.png","response":2,"category":"Car","background_difficulty":"1","image_path":"images/Car/With_Backgrounds/difficulty1_image2.png","trial_type":"image-button-response","trial_index":24,"time_elapsed":61873,"internal_node_id":"0.0-2.0-0.22"},{"rt":1829,"stimulus":"images/Boat/With_Backgrounds/difficulty4_image7.png","response":0,"category":"Boat","background_difficulty":"4","image_path":"images/Boat/With_Backgrounds/difficulty4_image7.png","trial_type":"image-button-response","trial_index":25,"time_elapsed":63705,"internal_node_id":"0.0-2.0-0.23"},{"rt":1535,"stimulus":"images/Car/With_Backgrounds/difficulty0_image9.png","response":2,"category":"Car","background_difficulty":"0","image_path":"images/Car/With_Backgrounds/difficulty0_image9.png","trial_type":"image-button-response","trial_index":26,"time_elapsed":65243,"internal_node_id":"0.0-2.0-0.24"},{"rt":1822,"stimulus":"images/Other/With_Backgrounds/difficulty6_image5.png","response":7,"category":"Other","background_difficulty":"6","image_path":"images/Other/With_Backgrounds/difficulty6_image5.png","trial_type":"image-button-response","trial_index":27,"time_elapsed":67068,"internal_node_id":"0.0-2.0-0.25"},{"rt":1262,"stimulus":"images/Human/With_Backgrounds/difficulty6_image6.png","response":5,"category":"Human","background_difficulty":"6","image_path":"images/Human/With_Backgrounds/difficulty6_image6.png","trial_type":"image-button-response","trial_index":28,"time_elapsed":68333,"internal_node_id":"0.0-2.0-0.26"},{"rt":1560,"stimulus":"images/Tree/With_Backgrounds/difficulty6_image8.png","response":6,"category":"Tree","background_difficulty":"6","image_path":"images/Tree/With_Backgrounds/difficulty6_image8.png","trial_type":"image-button-response","trial_index":29,"time_elapsed":69895,"internal_node_id":"0.0-2.0-0.27"},{"rt":1256,"stimulus":"images/Tree/With_Backgrounds/difficulty3_image0.png","response":6,"category":"Tree","background_difficulty":"3","image_path":"images/Tree/With_Backgrounds/difficulty3_image0.png","trial_type":"image-button-response","trial_index":30,"time_elapsed":71154,"internal_node_id":"0.0-2.0-0.28"},{"rt":1658,"stimulus":"images/Other/With_Backgrounds/difficulty1_image7.png","response":7,"category":"Other","background_difficulty":"1","image_path":"images/Other/With_Backgrounds/difficulty1_image7.png","trial_type":"image-button-response","trial_index":31,"time_elapsed":72814,"internal_node_id":"0.0-2.0-0.29"},{"rt":1139,"stimulus":"images/Tree/With_Backgrounds/difficulty7_image3.png","response":6,"category":"Tree","background_difficulty":"7","image_path":"images/Tree/With_Backgrounds/difficulty7_image3.png","trial_type":"image-button-response","trial_index":32,"time_elapsed":73956,"internal_node_id":"0.0-2.0-0.30"},{"rt":2183,"stimulus":"images/Boat/With_Backgrounds/difficulty8_image4.png","response":0,"category":"Boat","background_difficulty":"8","image_path":"images/Boat/With_Backgrounds/difficulty8_image4.png","trial_type":"image-button-response","trial_index":33,"time_elapsed":76142,"internal_node_id":"0.0-2.0-0.31"},{"rt":1428,"stimulus":"images/Dog/With_Backgrounds/difficulty3_image4.png","response":4,"category":"Dog","background_difficulty":"3","image_path":"images/Dog/With_Backgrounds/difficulty3_image4.png","trial_type":"image-button-response","trial_index":34,"time_elapsed":77572,"internal_node_id":"0.0-2.0-0.32"},{"rt":1894,"stimulus":"images/Cat/With_Backgrounds/difficulty0_image8.png","response":3,"category":"Cat","background_difficulty":"0","image_path":"images/Cat/With_Backgrounds/difficulty0_image8.png","trial_type":"image-button-response","trial_index":35,"time_elapsed":79469,"internal_node_id":"0.0-2.0-0.33"},{"rt":1554,"stimulus":"images/Other/With_Backgrounds/difficulty8_image8.png","response":7,"category":"Other","background_difficulty":"8","image_path":"images/Other/With_Backgrounds/difficulty8_image8.png","trial_type":"image-button-response","trial_index":36,"time_elapsed":81026,"internal_node_id":"0.0-2.0-0.34"},{"rt":1172,"stimulus":"images/Tree/With_Backgrounds/difficulty0_image7.png","response":6,"category":"Tree","background_difficulty":"0","image_path":"images/Tree/With_Backgrounds/difficulty0_image7.png","trial_type":"image-button-response","trial_index":37,"time_elapsed":82200,"internal_node_id":"0.0-2.0-0.35"},{"rt":1427,"stimulus":"images/Cat/With_Backgrounds/difficulty3_image6.png","response":3,"category":"Cat","background_difficulty":"3","image_path":"images/Cat/With_Backgrounds/difficulty3_image6.png","trial_type":"image-button-response","trial_index":38,"time_elapsed":83629,"internal_node_id":"0.0-2.0-0.36"},{"rt":1133,"stimulus":"images/Human/With_Backgrounds/difficulty2_image0.png","response":5,"category":"Human","background_difficulty":"2","image_path":"images/Human/With_Backgrounds/difficulty2_image0.png","trial_type":"image-button-response","trial_index":39,"time_elapsed":84766,"internal_node_id":"0.0-2.0-0.37"},{"rt":1598,"stimulus":"images/Cat/With_Backgrounds/difficulty2_image2.png","response":3,"category":"Cat","background_difficulty":"2","image_path":"images/Cat/With_Backgrounds/difficulty2_image2.png","trial_type":"image-button-response","trial_index":40,"time_elapsed":86367,"internal_node_id":"0.0-2.0-0.38"},{"rt":1104,"stimulus":"images/Human/With_Backgrounds/difficulty8_image9.png","response":5,"category":"Human","background_difficulty":"8","image_path":"images/Human/With_Backgrounds/difficulty8_image9.png","trial_type":"image-button-response","trial_index":41,"time_elapsed":87473,"internal_node_id":"0.0-2.0-0.39"},{"rt":1233,"stimulus":"images/Tree/With_Backgrounds/difficulty8_image9.png","response":6,"category":"Tree","background_difficulty":"8","image_path":"images/Tree/With_Backgrounds/difficulty8_image9.png","trial_type":"image-button-response","trial_index":42,"time_elapsed":88708,"internal_node_id":"0.0-2.0-0.40"},{"rt":1750,"stimulus":"images/Broccoli/With_Backgrounds/difficulty2_image8.png","response":1,"category":"Broccoli","background_difficulty":"2","image_path":"images/Broccoli/With_Backgrounds/difficulty2_image8.png","trial_type":"image-button-response","trial_index":43,"time_elapsed":90461,"internal_node_id":"0.0-2.0-0.41"},{"rt":1459,"stimulus":"images/Dog/With_Backgrounds/difficulty7_image0.png","response":4,"category":"Dog","background_difficulty":"7","image_path":"images/Dog/With_Backgrounds/difficulty7_image0.png","trial_type":"image-button-response","trial_index":44,"time_elapsed":91922,"internal_node_id":"0.0-2.0-0.42"},{"rt":1454,"stimulus":"images/Human/With_Backgrounds/difficulty5_image2.png","response":5,"category":"Human","background_difficulty":"5","image_path":"images/Human/With_Backgrounds/difficulty5_image2.png","trial_type":"image-button-response","trial_index":45,"time_elapsed":93379,"internal_node_id":"0.0-2.0-0.43"},{"rt":2842,"stimulus":"images/Dog/With_Backgrounds/difficulty6_image2.png","response":4,"category":"Dog","background_difficulty":"6","image_path":"images/Dog/With_Backgrounds/difficulty6_image2.png","trial_type":"image-button-response","trial_index":46,"time_elapsed":96224,"internal_node_id":"0.0-2.0-0.44"},{"rt":950,"stimulus":"images/Dog/With_Backgrounds/difficulty5_image3.png","response":4,"category":"Dog","background_difficulty":"5","image_path":"images/Dog/With_Backgrounds/difficulty5_image3.png","trial_type":"image-button-response","trial_index":47,"time_elapsed":97176,"internal_node_id":"0.0-2.0-0.45"},{"rt":1173,"stimulus":"images/Cat/With_Backgrounds/difficulty6_image1.png","response":3,"category":"Cat","background_difficulty":"6","image_path":"images/Cat/With_Backgrounds/difficulty6_image1.png","trial_type":"image-button-response","trial_index":48,"time_elapsed":98352,"internal_node_id":"0.0-2.0-0.46"},{"rt":1200,"stimulus":"images/Broccoli/With_Backgrounds/difficulty8_image7.png","response":1,"category":"Broccoli","background_difficulty":"8","image_path":"images/Broccoli/With_Backgrounds/difficulty8_image7.png","trial_type":"image-button-response","trial_index":49,"time_elapsed":99555,"internal_node_id":"0.0-2.0-0.47"},{"rt":1666,"stimulus":"images/Car/With_Backgrounds/difficulty6_image8.png","response":2,"category":"Car","background_difficulty":"6","image_path":"images/Car/With_Backgrounds/difficulty6_image8.png","trial_type":"image-button-response","trial_index":50,"time_elapsed":101223,"internal_node_id":"0.0-2.0-0.48"},{"rt":1169,"stimulus":"images/Human/With_Backgrounds/difficulty1_image8.png","response":5,"category":"Human","background_difficulty":"1","image_path":"images/Human/With_Backgrounds/difficulty1_image8.png","trial_type":"image-button-response","trial_index":51,"time_elapsed":102395,"internal_node_id":"0.0-2.0-0.49"},{"rt":1366,"stimulus":"images/Other/With_Backgrounds/difficulty5_image3.png","response":7,"category":"Other","background_difficulty":"5","image_path":"images/Other/With_Backgrounds/difficulty5_image3.png","trial_type":"image-button-response","trial_index":52,"time_elapsed":103764,"internal_node_id":"0.0-2.0-0.50"},{"rt":2034,"stimulus":"images/Boat/With_Backgrounds/difficulty5_image5.png","response":0,"category":"Boat","background_difficulty":"5","image_path":"images/Boat/With_Backgrounds/difficulty5_image5.png","trial_type":"image-button-response","trial_index":53,"time_elapsed":105801,"internal_node_id":"0.0-2.0-0.51"},{"rt":1718,"stimulus":"images/Other/With_Backgrounds/difficulty2_image4.png","response":7,"category":"Other","background_difficulty":"2","image_path":"images/Other/With_Backgrounds/difficulty2_image4.png","trial_type":"image-button-response","trial_index":54,"time_elapsed":107520,"internal_node_id":"0.0-2.0-0.52"},{"rt":1521,"stimulus":"images/Broccoli/With_Backgrounds/difficulty6_image6.png","response":1,"category":"Broccoli","background_difficulty":"6","image_path":"images/Broccoli/With_Backgrounds/difficulty6_image6.png","trial_type":"image-button-response","trial_index":55,"time_elapsed":109044,"internal_node_id":"0.0-2.0-0.53"},{"rt":1594,"stimulus":"images/Car/With_Backgrounds/difficulty4_image0.png","response":2,"category":"Car","background_difficulty":"4","image_path":"images/Car/With_Backgrounds/difficulty4_image0.png","trial_type":"image-button-response","trial_index":56,"time_elapsed":110641,"internal_node_id":"0.0-2.0-0.54"},{"rt":1233,"stimulus":"images/Other/With_Backgrounds/difficulty3_image2.png","response":7,"category":"Other","background_difficulty":"3","image_path":"images/Other/With_Backgrounds/difficulty3_image2.png","trial_type":"image-button-response","trial_index":57,"time_elapsed":111877,"internal_node_id":"0.0-2.0-0.55"},{"rt":1696,"stimulus":"images/Other/With_Backgrounds/difficulty7_image6.png","response":7,"category":"Other","background_difficulty":"7","image_path":"images/Other/With_Backgrounds/difficulty7_image6.png","trial_type":"image-button-response","trial_index":58,"time_elapsed":113575,"internal_node_id":"0.0-2.0-0.56"},{"rt":1708,"stimulus":"images/Tree/With_Backgrounds/difficulty5_image1.png","response":6,"category":"Tree","background_difficulty":"5","image_path":"images/Tree/With_Backgrounds/difficulty5_image1.png","trial_type":"image-button-response","trial_index":59,"time_elapsed":115286,"internal_node_id":"0.0-2.0-0.57"},{"rt":1297,"stimulus":"images/Broccoli/With_Backgrounds/difficulty1_image5.png","response":1,"category":"Broccoli","background_difficulty":"1","image_path":"images/Broccoli/With_Backgrounds/difficulty1_image5.png","trial_type":"image-button-response","trial_index":60,"time_elapsed":116586,"internal_node_id":"0.0-2.0-0.58"},{"rt":1662,"stimulus":"images/Boat/With_Backgrounds/difficulty2_image1.png","response":0,"category":"Boat","background_difficulty":"2","image_path":"images/Boat/With_Backgrounds/difficulty2_image1.png","trial_type":"image-button-response","trial_index":61,"time_elapsed":118251,"internal_node_id":"0.0-2.0-0.59"},{"rt":2019,"stimulus":"images/Car/With_Backgrounds/difficulty3_image7.png","response":2,"category":"Car","background_difficulty":"3","image_path":"images/Car/With_Backgrounds/difficulty3_image7.png","trial_type":"image-button-response","trial_index":62,"time_elapsed":120272,"internal_node_id":"0.0-2.0-0.60"},{"rt":939,"stimulus":"images/Car/With_Backgrounds/difficulty7_image4.png","response":2,"category":"Car","background_difficulty":"7","image_path":"images/Car/With_Backgrounds/difficulty7_image4.png","trial_type":"image-button-response","trial_index":63,"time_elapsed":121213,"internal_node_id":"0.0-2.0-0.61"},{"rt":1123,"stimulus":"images/Broccoli/With_Backgrounds/difficulty4_image2.png","response":1,"category":"Broccoli","background_difficulty":"4","image_path":"images/Broccoli/With_Backgrounds/difficulty4_image2.png","trial_type":"image-button-response","trial_index":64,"time_elapsed":122339,"internal_node_id":"0.0-2.0-0.62"},{"rt":1251,"stimulus":"images/Dog/With_Backgrounds/difficulty8_image1.png","response":4,"category":"Dog","background_difficulty":"8","image_path":"images/Dog/With_Backgrounds/difficulty8_image1.png","trial_type":"image-button-response","trial_index":65,"time_elapsed":123592,"internal_node_id":"0.0-2.0-0.63"},{"rt":1507,"stimulus":"images/Boat/With_Backgrounds/difficulty3_image8.png","response":0,"category":"Boat","background_difficulty":"3","image_path":"images/Boat/With_Backgrounds/difficulty3_image8.png","trial_type":"image-button-response","trial_index":66,"time_elapsed":125102,"internal_node_id":"0.0-2.0-0.64"},{"rt":1446,"stimulus":"images/Human/With_Backgrounds/difficulty3_image7.png","response":5,"category":"Human","background_difficulty":"3","image_path":"images/Human/With_Backgrounds/difficulty3_image7.png","trial_type":"image-button-response","trial_index":67,"time_elapsed":126551,"internal_node_id":"0.0-2.0-0.65"},{"rt":1285,"stimulus":"images/Boat/With_Backgrounds/difficulty7_image2.png","response":0,"category":"Boat","background_difficulty":"7","image_path":"images/Boat/With_Backgrounds/difficulty7_image2.png","trial_type":"image-button-response","trial_index":68,"time_elapsed":127838,"internal_node_id":"0.0-2.0-0.66"},{"rt":2144,"stimulus":"images/Cat/With_Backgrounds/difficulty8_image0.png","response":3,"category":"Cat","background_difficulty":"8","image_path":"images/Cat/With_Backgrounds/difficulty8_image0.png","trial_type":"image-button-response","trial_index":69,"time_elapsed":129984,"internal_node_id":"0.0-2.0-0.67"},{"rt":1296,"stimulus":"images/Dog/With_Backgrounds/difficulty4_image5.png","response":4,"category":"Dog","background_difficulty":"4","image_path":"images/Dog/With_Backgrounds/difficulty4_image5.png","trial_type":"image-button-response","trial_index":70,"time_elapsed":131283,"internal_node_id":"0.0-2.0-0.68"},{"rt":1687,"stimulus":"images/Cat/With_Backgrounds/difficulty5_image4.png","response":3,"category":"Cat","background_difficulty":"5","image_path":"images/Cat/With_Backgrounds/difficulty5_image4.png","trial_type":"image-button-response","trial_index":71,"time_elapsed":132972,"internal_node_id":"0.0-2.0-0.69"},{"rt":1215,"stimulus":"images/Broccoli/With_Backgrounds/difficulty0_image9.png","response":1,"category":"Broccoli","background_difficulty":"0","image_path":"images/Broccoli/With_Backgrounds/difficulty0_image9.png","trial_type":"image-button-response","trial_index":72,"time_elapsed":134190,"internal_node_id":"0.0-2.0-0.70"},{"rt":1951,"stimulus":"images/Car/With_Backgrounds/difficulty8_image6.png","response":2,"category":"Car","background_difficulty":"8","image_path":"images/Car/With_Backgrounds/difficulty8_image6.png","trial_type":"image-button-response","trial_index":73,"time_elapsed":136143,"internal_node_id":"0.0-2.0-0.71"},{"rt":1451,"stimulus":["<h2>Press the button below to end experiment.</h2><p>Thank you for participating!</p>"],"response":0,"trial_type":"html-button-response","trial_index":74,"time_elapsed":137596,"internal_node_id":"0.0-3.0"}]