[{"success":true,"timeout":false,"failed_images":[],"failed_audio":[],"failed_video":[],"trial_type":"preload","trial_index":0,"time_elapsed":3144,"internal_node_id":"0.0-0.0"},{"rt":16869,"stimulus":["<h2>Noisy background image classification</h2><p>In this experiment you will briefly see images on top of colored squares of various sizes.</p><p>Your task is to report what each image is, selecting \"None of the Above\" if none of the given options are correct.</p> <p>The possible options are <strong>Boat</strong>, <strong>Broccoli</strong>, <strong>Car</strong>, <strong>Cat</strong>, <strong>Dog</strong>, <strong>Human</strong>, <strong>Tree</strong>, and <strong>None of the Above</strong>"],"response":0,"trial_type":"html-button-response","trial_index":1,"time_elapsed":20019,"internal_node_id":"0.0-1.0"},{"rt":4483,"stimulus":"images/Car/With_Backgrounds/difficulty8_image3.png","response":2,"category":"Car","background_difficulty":"8","image_path":"images/Car/With_Backgrounds/difficulty8_image3.png","trial_type":"image-button-response","trial_index":2,"time_elapsed":24538,"internal_node_id":"0.0-2.0-0.0"},{"rt":2233,"stimulus":"images/Cat/With_Backgrounds/difficulty7_image9.png","response":3,"category":"Cat","background_difficulty":"7","image_path":"images/Cat/With_Backgrounds/difficulty7_image9.png","trial_type":"image-button-response","trial_index":3,"time_elapsed":26787,"internal_node_id":"0.0-2.0-0.1"},{"rt":2466,"stimulus":"images/Boat/With_Backgrounds/difficulty0_image8.png","response":0,"category":"Boat","background_difficulty":"0","image_path":"images/Boat/With_Backgrounds/difficulty0_image8.png","trial_type":"image-button-response","trial_index":4,"time_elapsed":29268,"internal_node_id":"0.0-2.0-0.2"},{"rt":1945,"stimulus":"images/Human/With_Backgrounds/difficulty2_image5.png","response":5,"category":"Human","background_difficulty":"2","image_path":"images/Human/With_Backgrounds/difficulty2_image5.png","trial_type":"image-button-response","trial_index":5,"time_elapsed":31232,"internal_node_id":"0.0-2.0-0.3"},{"rt":1404,"stimulus":"images/Tree/With_Backgrounds/difficulty0_image3.png","response":6,"category":"Tree","background_difficulty":"0","image_path":"images/Tree/With_Backgrounds/difficulty0_image3.png","trial_type":"image-button-response","trial_index":6,"time_elapsed":32650,"internal_node_id":"0.0-2.0-0.4"},{"rt":1498,"stimulus":"images/Human/With_Backgrounds/difficulty0_image6.png","response":5,"category":"Human","background_difficulty":"0","image_path":"images/Human/With_Backgrounds/difficulty0_image6.png","trial_type":"image-button-response","trial_index":7,"time_elapsed":34168,"internal_node_id":"0.0-2.0-0.5"},{"rt":2460,"stimulus":"images/Car/With_Backgrounds/difficulty3_image9.png","response":2,"category":"Car","background_difficulty":"3","image_path":"images/Car/With_Backgrounds/difficulty3_image9.png","trial_type":"image-button-response","trial_index":8,"time_elapsed":36646,"internal_node_id":"0.0-2.0-0.6"},{"rt":3031,"stimulus":"images/Other/With_Backgrounds/difficulty0_image8.png","response":7,"category":"Other","background_difficulty":"0","image_path":"images/Other/With_Backgrounds/difficulty0_image8.png","trial_type":"image-button-response","trial_index":9,"time_elapsed":39693,"internal_node_id":"0.0-2.0-0.7"},{"rt":1860,"stimulus":"images/Broccoli/With_Backgrounds/difficulty7_image1.png","response":1,"category":"Broccoli","background_difficulty":"7","image_path":"images/Broccoli/With_Backgrounds/difficulty7_image1.png","trial_type":"image-button-response","trial_index":10,"time_elapsed":41577,"internal_node_id":"0.0-2.0-0.8"},{"rt":2280,"stimulus":"images/Boat/With_Backgrounds/difficulty1_image6.png","response":0,"category":"Boat","background_difficulty":"1","image_path":"images/Boat/With_Backgrounds/difficulty1_image6.png","trial_type":"image-button-response","trial_index":11,"time_elapsed":43873,"internal_node_id":"0.0-2.0-0.9"},{"rt":1606,"stimulus":"images/Dog/With_Backgrounds/difficulty1_image3.png","response":4,"category":"Dog","background_difficulty":"1","image_path":"images/Dog/With_Backgrounds/difficulty1_image3.png","trial_type":"image-button-response","trial_index":12,"time_elapsed":45495,"internal_node_id":"0.0-2.0-0.10"},{"rt":1482,"stimulus":"images/Cat/With_Backgrounds/difficulty8_image7.png","response":3,"category":"Cat","background_difficulty":"8","image_path":"images/Cat/With_Backgrounds/difficulty8_image7.png","trial_type":"image-button-response","trial_index":13,"time_elapsed":46996,"internal_node_id":"0.0-2.0-0.11"},{"rt":2352,"stimulus":"images/Boat/With_Backgrounds/difficulty5_image2.png","response":0,"category":"Boat","background_difficulty":"5","image_path":"images/Boat/With_Backgrounds/difficulty5_image2.png","trial_type":"image-button-response","trial_index":14,"time_elapsed":49361,"internal_node_id":"0.0-2.0-0.12"},{"rt":1899,"stimulus":"images/Tree/With_Backgrounds/difficulty7_image2.png","response":6,"category":"Tree","background_difficulty":"7","image_path":"images/Tree/With_Backgrounds/difficulty7_image2.png","trial_type":"image-button-response","trial_index":15,"time_elapsed":51278,"internal_node_id":"0.0-2.0-0.13"},{"rt":1292,"stimulus":"images/Tree/With_Backgrounds/difficulty1_image1.png","response":6,"category":"Tree","background_difficulty":"1","image_path":"images/Tree/With_Backgrounds/difficulty1_image1.png","trial_type":"image-button-response","trial_index":16,"time_elapsed":52582,"internal_node_id":"0.0-2.0-0.14"},{"rt":1223,"stimulus":"images/Human/With_Backgrounds/difficulty5_image7.png","response":5,"category":"Human","background_difficulty":"5","image_path":"images/Human/With_Backgrounds/difficulty5_image7.png","trial_type":"image-button-response","trial_index":17,"time_elapsed":53827,"internal_node_id":"0.0-2.0-0.15"},{"rt":1580,"stimulus":"images/Boat/With_Backgrounds/difficulty4_image9.png","response":0,"category":"Boat","background_difficulty":"4","image_path":"images/Boat/With_Backgrounds/difficulty4_image9.png","trial_type":"image-button-response","trial_index":18,"time_elapsed":55419,"internal_node_id":"0.0-2.0-0.16"},{"rt":1476,"stimulus":"images/Broccoli/With_Backgrounds/difficulty2_image9.png","response":1,"category":"Broccoli","background_difficulty":"2","image_path":"images/Broccoli/With_Backgrounds/difficulty2_image9.png","trial_type":"image-button-response","trial_index":19,"time_elapsed":56909,"internal_node_id":"0.0-2.0-0.17"},{"rt":1928,"stimulus":"images/Other/With_Backgrounds/difficulty5_image2.png","response":7,"category":"Other","background_difficulty":"5","image_path":"images/Other/With_Backgrounds/difficulty5_image2.png","trial_type":"image-button-response","trial_index":20,"time_elapsed":58852,"internal_node_id":"0.0-2.0-0.18"},{"rt":1673,"stimulus":"images/Boat/With_Backgrounds/difficulty6_image4.png","response":0,"category":"Boat","background_difficulty":"6","image_path":"images/Boat/With_Backgrounds/difficulty6_image4.png","trial_type":"image-button-response","trial_index":21,"time_elapsed":60542,"internal_node_id":"0.0-2.0-0.19"},{"rt":1766,"stimulus":"images/Cat/With_Backgrounds/difficulty6_image3.png","response":3,"category":"Cat","background_difficulty":"6","image_path":"images/Cat/With_Backgrounds/difficulty6_image3.png","trial_type":"image-button-response","trial_index":22,"time_elapsed":62326,"internal_node_id":"0.0-2.0-0.20"},{"rt":1433,"stimulus":"images/Car/With_Backgrounds/difficulty6_image1.png","response":2,"category":"Car","background_difficulty":"6","image_path":"images/Car/With_Backgrounds/difficulty6_image1.png","trial_type":"image-button-response","trial_index":23,"time_elapsed":63776,"internal_node_id":"0.0-2.0-0.21"},{"rt":2060,"stimulus":"images/Boat/With_Backgrounds/difficulty8_image1.png","response":0,"category":"Boat","background_difficulty":"8","image_path":"images/Boat/With_Backgrounds/difficulty8_image1.png","trial_type":"image-button-response","trial_index":24,"time_elapsed":65854,"internal_node_id":"0.0-2.0-0.22"},{"rt":1563,"stimulus":"images/Dog/With_Backgrounds/difficulty0_image6.png","response":4,"category":"Dog","background_difficulty":"0","image_path":"images/Dog/With_Backgrounds/difficulty0_image6.png","trial_type":"image-button-response","trial_index":25,"time_elapsed":67433,"internal_node_id":"0.0-2.0-0.23"},{"rt":1283,"stimulus":"images/Human/With_Backgrounds/difficulty7_image4.png","response":5,"category":"Human","background_difficulty":"7","image_path":"images/Human/With_Backgrounds/difficulty7_image4.png","trial_type":"image-button-response","trial_index":26,"time_elapsed":68735,"internal_node_id":"0.0-2.0-0.24"},{"rt":1653,"stimulus":"images/Broccoli/With_Backgrounds/difficulty5_image3.png","response":1,"category":"Broccoli","background_difficulty":"5","image_path":"images/Broccoli/With_Backgrounds/difficulty5_image3.png","trial_type":"image-button-response","trial_index":27,"time_elapsed":70403,"internal_node_id":"0.0-2.0-0.25"},{"rt":2476,"stimulus":"images/Tree/With_Backgrounds/difficulty6_image0.png","response":6,"category":"Tree","background_difficulty":"6","image_path":"images/Tree/With_Backgrounds/difficulty6_image0.png","trial_type":"image-button-response","trial_index":28,"time_elapsed":72905,"internal_node_id":"0.0-2.0-0.26"},{"rt":2150,"stimulus":"images/Broccoli/With_Backgrounds/difficulty8_image4.png","response":1,"category":"Broccoli","background_difficulty":"8","image_path":"images/Broccoli/With_Backgrounds/difficulty8_image4.png","trial_type":"image-button-response","trial_index":29,"time_elapsed":75082,"internal_node_id":"0.0-2.0-0.27"},{"rt":1463,"stimulus":"images/Cat/With_Backgrounds/difficulty4_image8.png","response":3,"category":"Cat","background_difficulty":"4","image_path":"images/Cat/With_Backgrounds/difficulty4_image8.png","trial_type":"image-button-response","trial_index":30,"time_elapsed":76561,"internal_node_id":"0.0-2.0-0.28"},{"rt":1382,"stimulus":"images/Cat/With_Backgrounds/difficulty2_image4.png","response":3,"category":"Cat","background_difficulty":"2","image_path":"images/Cat/With_Backgrounds/difficulty2_image4.png","trial_type":"image-button-response","trial_index":31,"time_elapsed":77960,"internal_node_id":"0.0-2.0-0.29"},{"rt":1674,"stimulus":"images/Other/With_Backgrounds/difficulty8_image7.png","response":7,"category":"Other","background_difficulty":"8","image_path":"images/Other/With_Backgrounds/difficulty8_image7.png","trial_type":"image-button-response","trial_index":32,"time_elapsed":79653,"internal_node_id":"0.0-2.0-0.30"},{"rt":1516,"stimulus":"images/Dog/With_Backgrounds/difficulty4_image9.png","response":4,"category":"Dog","background_difficulty":"4","image_path":"images/Dog/With_Backgrounds/difficulty4_image9.png","trial_type":"image-button-response","trial_index":33,"time_elapsed":81186,"internal_node_id":"0.0-2.0-0.31"},{"rt":1268,"stimulus":"images/Cat/With_Backgrounds/difficulty1_image1.png","response":3,"category":"Cat","background_difficulty":"1","image_path":"images/Cat/With_Backgrounds/difficulty1_image1.png","trial_type":"image-button-response","trial_index":34,"time_elapsed":82471,"internal_node_id":"0.0-2.0-0.32"},{"rt":1523,"stimulus":"images/Tree/With_Backgrounds/difficulty2_image9.png","response":6,"category":"Tree","background_difficulty":"2","image_path":"images/Tree/With_Backgrounds/difficulty2_image9.png","trial_type":"image-button-response","trial_index":35,"time_elapsed":84009,"internal_node_id":"0.0-2.0-0.33"},{"rt":3650,"stimulus":"images/Other/With_Backgrounds/difficulty6_image3.png","response":7,"category":"Other","background_difficulty":"6","image_path":"images/Other/With_Backgrounds/difficulty6_image3.png","trial_type":"image-button-response","trial_index":36,"time_elapsed":87674,"internal_node_id":"0.0-2.0-0.34"},{"rt":1774,"stimulus":"images/Cat/With_Backgrounds/difficulty5_image2.png","response":3,"category":"Cat","background_difficulty":"5","image_path":"images/Cat/With_Backgrounds/difficulty5_image2.png","trial_type":"image-button-response","trial_index":37,"time_elapsed":89465,"internal_node_id":"0.0-2.0-0.35"},{"rt":1895,"stimulus":"images/Broccoli/With_Backgrounds/difficulty6_image0.png","response":1,"category":"Broccoli","background_difficulty":"6","image_path":"images/Broccoli/With_Backgrounds/difficulty6_image0.png","trial_type":"image-button-response","trial_index":38,"time_elapsed":91378,"internal_node_id":"0.0-2.0-0.36"},{"rt":1692,"stimulus":"images/Dog/With_Backgrounds/difficulty3_image2.png","response":4,"category":"Dog","background_difficulty":"3","image_path":"images/Dog/With_Backgrounds/difficulty3_image2.png","trial_type":"image-button-response","trial_index":39,"time_elapsed":93087,"internal_node_id":"0.0-2.0-0.37"},{"rt":1795,"stimulus":"images/Car/With_Backgrounds/difficulty7_image5.png","response":2,"category":"Car","background_difficulty":"7","image_path":"images/Car/With_Backgrounds/difficulty7_image5.png","trial_type":"image-button-response","trial_index":40,"time_elapsed":94902,"internal_node_id":"0.0-2.0-0.38"},{"rt":1378,"stimulus":"images/Human/With_Backgrounds/difficulty3_image2.png","response":5,"category":"Human","background_difficulty":"3","image_path":"images/Human/With_Backgrounds/difficulty3_image2.png","trial_type":"image-button-response","trial_index":41,"time_elapsed":96294,"internal_node_id":"0.0-2.0-0.39"},{"rt":1541,"stimulus":"images/Boat/With_Backgrounds/difficulty7_image3.png","response":0,"category":"Boat","background_difficulty":"7","image_path":"images/Boat/With_Backgrounds/difficulty7_image3.png","trial_type":"image-button-response","trial_index":42,"time_elapsed":97850,"internal_node_id":"0.0-2.0-0.40"},{"rt":1604,"stimulus":"images/Other/With_Backgrounds/difficulty3_image1.png","response":7,"category":"Other","background_difficulty":"3","image_path":"images/Other/With_Backgrounds/difficulty3_image1.png","trial_type":"image-button-response","trial_index":43,"time_elapsed":99471,"internal_node_id":"0.0-2.0-0.41"},{"rt":1296,"stimulus":"images/Dog/With_Backgrounds/difficulty2_image1.png","response":4,"category":"Dog","background_difficulty":"2","image_path":"images/Dog/With_Backgrounds/difficulty2_image1.png","trial_type":"image-button-response","trial_index":44,"time_elapsed":100783,"internal_node_id":"0.0-2.0-0.42"},{"rt":1582,"stimulus":"images/Other/With_Backgrounds/difficulty1_image9.png","response":7,"category":"Other","background_difficulty":"1","image_path":"images/Other/With_Backgrounds/difficulty1_image9.png","trial_type":"image-button-response","trial_index":45,"time_elapsed":102379,"internal_node_id":"0.0-2.0-0.43"},{"rt":1499,"stimulus":"images/Car/With_Backgrounds/difficulty2_image2.png","response":2,"category":"Car","background_difficulty":"2","image_path":"images/Car/With_Backgrounds/difficulty2_image2.png","trial_type":"image-button-response","trial_index":46,"time_elapsed":103892,"internal_node_id":"0.0-2.0-0.44"},{"rt":1761,"stimulus":"images/Dog/With_Backgrounds/difficulty6_image7.png","response":4,"category":"Dog","background_difficulty":"6","image_path":"images/Dog/With_Backgrounds/difficulty6_image7.png","trial_type":"image-button-response","trial_index":47,"time_elapsed":105670,"internal_node_id":"0.0-2.0-0.45"},{"rt":1573,"stimulus":"images/Other/With_Backgrounds/difficulty4_image4.png","response":7,"category":"Other","background_difficulty":"4","image_path":"images/Other/With_Backgrounds/difficulty4_image4.png","trial_type":"image-button-response","trial_index":48,"time_elapsed":107260,"internal_node_id":"0.0-2.0-0.46"},{"rt":1386,"stimulus":"images/Cat/With_Backgrounds/difficulty3_image6.png","response":3,"category":"Cat","background_difficulty":"3","image_path":"images/Cat/With_Backgrounds/difficulty3_image6.png","trial_type":"image-button-response","trial_index":49,"time_elapsed":108662,"internal_node_id":"0.0-2.0-0.47"},{"rt":2283,"stimulus":"images/Other/With_Backgrounds/difficulty7_image5.png","response":7,"category":"Other","background_difficulty":"7","image_path":"images/Other/With_Backgrounds/difficulty7_image5.png","trial_type":"image-button-response","trial_index":50,"time_elapsed":110965,"internal_node_id":"0.0-2.0-0.48"},{"rt":1655,"stimulus":"images/Cat/With_Backgrounds/difficulty0_image0.png","response":3,"category":"Cat","background_difficulty":"0","image_path":"images/Cat/With_Backgrounds/difficulty0_image0.png","trial_type":"image-button-response","trial_index":51,"time_elapsed":112638,"internal_node_id":"0.0-2.0-0.49"},{"rt":1394,"stimulus":"images/Boat/With_Backgrounds/difficulty2_image5.png","response":0,"category":"Boat","background_difficulty":"2","image_path":"images/Boat/With_Backgrounds/difficulty2_image5.png","trial_type":"image-button-response","trial_index":52,"time_elapsed":114045,"internal_node_id":"0.0-2.0-0.50"},{"rt":2363,"stimulus":"images/Car/With_Backgrounds/difficulty4_image7.png","response":2,"category":"Car","background_difficulty":"4","image_path":"images/Car/With_Backgrounds/difficulty4_image7.png","trial_type":"image-button-response","trial_index":53,"time_elapsed":116419,"internal_node_id":"0.0-2.0-0.51"},{"rt":1569,"stimulus":"images/Dog/With_Backgrounds/difficulty7_image8.png","response":4,"category":"Dog","background_difficulty":"7","image_path":"images/Dog/With_Backgrounds/difficulty7_image8.png","trial_type":"image-button-response","trial_index":54,"time_elapsed":118005,"internal_node_id":"0.0-2.0-0.52"},{"rt":1495,"stimulus":"images/Boat/With_Backgrounds/difficulty3_image0.png","response":0,"category":"Boat","background_difficulty":"3","image_path":"images/Boat/With_Backgrounds/difficulty3_image0.png","trial_type":"image-button-response","trial_index":55,"time_elapsed":119516,"internal_node_id":"0.0-2.0-0.53"},{"rt":1294,"stimulus":"images/Human/With_Backgrounds/difficulty8_image8.png","response":5,"category":"Human","background_difficulty":"8","image_path":"images/Human/With_Backgrounds/difficulty8_image8.png","trial_type":"image-button-response","trial_index":56,"time_elapsed":120826,"internal_node_id":"0.0-2.0-0.54"},{"rt":1683,"stimulus":"images/Broccoli/With_Backgrounds/difficulty0_image2.png","response":1,"category":"Broccoli","background_difficulty":"0","image_path":"images/Broccoli/With_Backgrounds/difficulty0_image2.png","trial_type":"image-button-response","trial_index":57,"time_elapsed":122527,"internal_node_id":"0.0-2.0-0.55"},{"rt":1401,"stimulus":"images/Tree/With_Backgrounds/difficulty3_image7.png","response":6,"category":"Tree","background_difficulty":"3","image_path":"images/Tree/With_Backgrounds/difficulty3_image7.png","trial_type":"image-button-response","trial_index":58,"time_elapsed":123945,"internal_node_id":"0.0-2.0-0.56"},{"rt":1292,"stimulus":"images/Human/With_Backgrounds/difficulty4_image3.png","response":5,"category":"Human","background_difficulty":"4","image_path":"images/Human/With_Backgrounds/difficulty4_image3.png","trial_type":"image-button-response","trial_index":59,"time_elapsed":125251,"internal_node_id":"0.0-2.0-0.57"},{"rt":1194,"stimulus":"images/Tree/With_Backgrounds/difficulty4_image8.png","response":6,"category":"Tree","background_difficulty":"4","image_path":"images/Tree/With_Backgrounds/difficulty4_image8.png","trial_type":"image-button-response","trial_index":60,"time_elapsed":126463,"internal_node_id":"0.0-2.0-0.58"},{"rt":1457,"stimulus":"images/Broccoli/With_Backgrounds/difficulty3_image6.png","response":1,"category":"Broccoli","background_difficulty":"3","image_path":"images/Broccoli/With_Backgrounds/difficulty3_image6.png","trial_type":"image-button-response","trial_index":61,"time_elapsed":127937,"internal_node_id":"0.0-2.0-0.59"},{"rt":1550,"stimulus":"images/Broccoli/With_Backgrounds/difficulty4_image8.png","response":1,"category":"Broccoli","background_difficulty":"4","image_path":"images/Broccoli/With_Backgrounds/difficulty4_image8.png","trial_type":"image-button-response","trial_index":62,"time_elapsed":129504,"internal_node_id":"0.0-2.0-0.60"},{"rt":1295,"stimulus":"images/Human/With_Backgrounds/difficulty1_image0.png","response":5,"category":"Human","background_difficulty":"1","image_path":"images/Human/With_Backgrounds/difficulty1_image0.png","trial_type":"image-button-response","trial_index":63,"time_elapsed":130816,"internal_node_id":"0.0-2.0-0.61"},{"rt":1299,"stimulus":"images/Tree/With_Backgrounds/difficulty8_image5.png","response":6,"category":"Tree","background_difficulty":"8","image_path":"images/Tree/With_Backgrounds/difficulty8_image5.png","trial_type":"image-button-response","trial_index":64,"time_elapsed":132131,"internal_node_id":"0.0-2.0-0.62"},{"rt":1365,"stimulus":"images/Dog/With_Backgrounds/difficulty5_image5.png","response":4,"category":"Dog","background_difficulty":"5","image_path":"images/Dog/With_Backgrounds/difficulty5_image5.png","trial_type":"image-button-response","trial_index":65,"time_elapsed":133512,"internal_node_id":"0.0-2.0-0.63"},{"rt":1884,"stimulus":"images/Tree/With_Backgrounds/difficulty5_image4.png","response":6,"category":"Tree","background_difficulty":"5","image_path":"images/Tree/With_Backgrounds/difficulty5_image4.png","trial_type":"image-button-response","trial_index":66,"time_elapsed":135413,"internal_node_id":"0.0-2.0-0.64"},{"rt":1426,"stimulus":"images/Broccoli/With_Backgrounds/difficulty1_image7.png","response":1,"category":"Broccoli","background_difficulty":"1","image_path":"images/Broccoli/With_Backgrounds/difficulty1_image7.png","trial_type":"image-button-response","trial_index":67,"time_elapsed":136857,"internal_node_id":"0.0-2.0-0.65"},{"rt":1985,"stimulus":"images/Car/With_Backgrounds/difficulty5_image8.png","response":2,"category":"Car","background_difficulty":"5","image_path":"images/Car/With_Backgrounds/difficulty5_image8.png","trial_type":"image-button-response","trial_index":68,"time_elapsed":138859,"internal_node_id":"0.0-2.0-0.66"},{"rt":2095,"stimulus":"images/Other/With_Backgrounds/difficulty2_image0.png","response":7,"category":"Other","background_difficulty":"2","image_path":"images/Other/With_Backgrounds/difficulty2_image0.png","trial_type":"image-button-response","trial_index":69,"time_elapsed":140970,"internal_node_id":"0.0-2.0-0.67"},{"rt":1490,"stimulus":"images/Car/With_Backgrounds/difficulty1_image4.png","response":2,"category":"Car","background_difficulty":"1","image_path":"images/Car/With_Backgrounds/difficulty1_image4.png","trial_type":"image-button-response","trial_index":70,"time_elapsed":142477,"internal_node_id":"0.0-2.0-0.68"},{"rt":1704,"stimulus":"images/Car/With_Backgrounds/difficulty0_image0.png","response":2,"category":"Car","background_difficulty":"0","image_path":"images/Car/With_Backgrounds/difficulty0_image0.png","trial_type":"image-button-response","trial_index":71,"time_elapsed":144197,"internal_node_id":"0.0-2.0-0.69"},{"rt":1358,"stimulus":"images/Dog/With_Backgrounds/difficulty8_image4.png","response":4,"category":"Dog","background_difficulty":"8","image_path":"images/Dog/With_Backgrounds/difficulty8_image4.png","trial_type":"image-button-response","trial_index":72,"time_elapsed":145578,"internal_node_id":"0.0-2.0-0.70"},{"rt":1199,"stimulus":"images/Human/With_Backgrounds/difficulty6_image9.png","response":5,"category":"Human","background_difficulty":"6","image_path":"images/Human/With_Backgrounds/difficulty6_image9.png","trial_type":"image-button-response","trial_index":73,"time_elapsed":146792,"internal_node_id":"0.0-2.0-0.71"},{"rt":2478,"stimulus":["<h2>Press the button below to end experiment.</h2><p>Thank you for participating!</p>"],"response":0,"trial_type":"html-button-response","trial_index":74,"time_elapsed":149277,"internal_node_id":"0.0-3.0"}]