[{"success":true,"timeout":false,"failed_images":[],"failed_audio":[],"failed_video":[],"trial_type":"preload","trial_index":0,"time_elapsed":2112,"internal_node_id":"0.0-0.0"},{"rt":1634,"stimulus":["<h2>Noisy background image classification</h2><p>In this experiment you will briefly see images on top of colored squares of various sizes.</p><p>Your task is to report what each image is, selecting \"None of the Above\" if none of the given options are correct.</p> <p>The possible options are <strong>Boat</strong>, <strong>Broccoli</strong>, <strong>Car</strong>, <strong>Cat</strong>, <strong>Dog</strong>, <strong>Human</strong>, <strong>Tree</strong>, and <strong>None of the Above</strong>"],"response":0,"trial_type":"html-button-response","trial_index":1,"time_elapsed":3748,"internal_node_id":"0.0-1.0"},{"rt":2834,"stimulus":"images/Boat/With_Backgrounds/difficulty6_image2.png","response":0,"category":"Boat","background_difficulty":"6","image_path":"images/Boat/With_Backgrounds/difficulty6_image2.png","trial_type":"image-button-response","trial_index":2,"time_elapsed":6586,"internal_node_id":"0.0-2.0-0.0"},{"rt":1948,"stimulus":"images/Boat/With_Backgrounds/difficulty7_image5.png","response":0,"category":"Boat","background_difficulty":"7","image_path":"images/Boat/With_Backgrounds/difficulty7_image5.png","trial_type":"image-button-response","trial_index":3,"time_elapsed":8537,"internal_node_id":"0.0-2.0-0.1"},{"rt":1299,"stimulus":"images/Dog/With_Backgrounds/difficulty8_image6.png","response":4,"category":"Dog","background_difficulty":"8","image_path":"images/Dog/With_Backgrounds/difficulty8_image6.png","trial_type":"image-button-response","trial_index":4,"time_elapsed":9839,"internal_node_id":"0.0-2.0-0.2"},{"rt":1548,"stimulus":"images/Tree/With_Backgrounds/difficulty7_image6.png","response":6,"category":"Tree","background_difficulty":"7","image_path":"images/Tree/With_Backgrounds/difficulty7_image6.png","trial_type":"image-button-response","trial_index":5,"time_elapsed":11390,"internal_node_id":"0.0-2.0-0.3"},{"rt":4319,"stimulus":"images/Other/With_Backgrounds/difficulty4_image9.png","response":7,"category":"Other","background_difficulty":"4","image_path":"images/Other/With_Backgrounds/difficulty4_image9.png","trial_type":"image-button-response","trial_index":6,"time_elapsed":15711,"internal_node_id":"0.0-2.0-0.4"},{"rt":1454,"stimulus":"images/Human/With_Backgrounds/difficulty3_image0.png","response":5,"category":"Human","background_difficulty":"3","image_path":"images/Human/With_Backgrounds/difficulty3_image0.png","trial_type":"image-button-response","trial_index":7,"time_elapsed":17167,"internal_node_id":"0.0-2.0-0.5"},{"rt":1209,"stimulus":"images/Broccoli/With_Backgrounds/difficulty8_image9.png","response":1,"category":"Broccoli","background_difficulty":"8","image_path":"images/Broccoli/With_Backgrounds/difficulty8_image9.png","trial_type":"image-button-response","trial_index":8,"time_elapsed":18379,"internal_node_id":"0.0-2.0-0.6"},{"rt":946,"stimulus":"images/Broccoli/With_Backgrounds/difficulty2_image3.png","response":1,"category":"Broccoli","background_difficulty":"2","image_path":"images/Broccoli/With_Backgrounds/difficulty2_image3.png","trial_type":"image-button-response","trial_index":9,"time_elapsed":19328,"internal_node_id":"0.0-2.0-0.7"},{"rt":2648,"stimulus":"images/Other/With_Backgrounds/difficulty2_image4.png","response":7,"category":"Other","background_difficulty":"2","image_path":"images/Other/With_Backgrounds/difficulty2_image4.png","trial_type":"image-button-response","trial_index":10,"time_elapsed":21979,"internal_node_id":"0.0-2.0-0.8"},{"rt":1098,"stimulus":"images/Car/With_Backgrounds/difficulty2_image9.png","response":2,"category":"Car","background_difficulty":"2","image_path":"images/Car/With_Backgrounds/difficulty2_image9.png","trial_type":"image-button-response","trial_index":11,"time_elapsed":23080,"internal_node_id":"0.0-2.0-0.9"},{"rt":1556,"stimulus":"images/Tree/With_Backgrounds/difficulty5_image8.png","response":6,"category":"Tree","background_difficulty":"5","image_path":"images/Tree/With_Backgrounds/difficulty5_image8.png","trial_type":"image-button-response","trial_index":12,"time_elapsed":24639,"internal_node_id":"0.0-2.0-0.10"},{"rt":1218,"stimulus":"images/Cat/With_Backgrounds/difficulty7_image7.png","response":3,"category":"Cat","background_difficulty":"7","image_path":"images/Cat/With_Backgrounds/difficulty7_image7.png","trial_type":"image-button-response","trial_index":13,"time_elapsed":25860,"internal_node_id":"0.0-2.0-0.11"},{"rt":1106,"stimulus":"images/Broccoli/With_Backgrounds/difficulty5_image8.png","response":1,"category":"Broccoli","background_difficulty":"5","image_path":"images/Broccoli/With_Backgrounds/difficulty5_image8.png","trial_type":"image-button-response","trial_index":14,"time_elapsed":26969,"internal_node_id":"0.0-2.0-0.12"},{"rt":1154,"stimulus":"images/Human/With_Backgrounds/difficulty2_image1.png","response":5,"category":"Human","background_difficulty":"2","image_path":"images/Human/With_Backgrounds/difficulty2_image1.png","trial_type":"image-button-response","trial_index":15,"time_elapsed":28125,"internal_node_id":"0.0-2.0-0.13"},{"rt":945,"stimulus":"images/Cat/With_Backgrounds/difficulty2_image2.png","response":3,"category":"Cat","background_difficulty":"2","image_path":"images/Cat/With_Backgrounds/difficulty2_image2.png","trial_type":"image-button-response","trial_index":16,"time_elapsed":29073,"internal_node_id":"0.0-2.0-0.14"},{"rt":1057,"stimulus":"images/Car/With_Backgrounds/difficulty5_image0.png","response":2,"category":"Car","background_difficulty":"5","image_path":"images/Car/With_Backgrounds/difficulty5_image0.png","trial_type":"image-button-response","trial_index":17,"time_elapsed":30133,"internal_node_id":"0.0-2.0-0.15"},{"rt":1228,"stimulus":"images/Human/With_Backgrounds/difficulty1_image4.png","response":5,"category":"Human","background_difficulty":"1","image_path":"images/Human/With_Backgrounds/difficulty1_image4.png","trial_type":"image-button-response","trial_index":18,"time_elapsed":31362,"internal_node_id":"0.0-2.0-0.16"},{"rt":890,"stimulus":"images/Human/With_Backgrounds/difficulty8_image7.png","response":5,"category":"Human","background_difficulty":"8","image_path":"images/Human/With_Backgrounds/difficulty8_image7.png","trial_type":"image-button-response","trial_index":19,"time_elapsed":32255,"internal_node_id":"0.0-2.0-0.17"},{"rt":953,"stimulus":"images/Broccoli/With_Backgrounds/difficulty3_image4.png","response":1,"category":"Broccoli","background_difficulty":"3","image_path":"images/Broccoli/With_Backgrounds/difficulty3_image4.png","trial_type":"image-button-response","trial_index":20,"time_elapsed":33211,"internal_node_id":"0.0-2.0-0.18"},{"rt":1074,"stimulus":"images/Dog/With_Backgrounds/difficulty1_image9.png","response":4,"category":"Dog","background_difficulty":"1","image_path":"images/Dog/With_Backgrounds/difficulty1_image9.png","trial_type":"image-button-response","trial_index":21,"time_elapsed":34288,"internal_node_id":"0.0-2.0-0.19"},{"rt":1234,"stimulus":"images/Cat/With_Backgrounds/difficulty4_image1.png","response":3,"category":"Cat","background_difficulty":"4","image_path":"images/Cat/With_Backgrounds/difficulty4_image1.png","trial_type":"image-button-response","trial_index":22,"time_elapsed":35525,"internal_node_id":"0.0-2.0-0.20"},{"rt":1403,"stimulus":"images/Other/With_Backgrounds/difficulty7_image2.png","response":7,"category":"Other","background_difficulty":"7","image_path":"images/Other/With_Backgrounds/difficulty7_image2.png","trial_type":"image-button-response","trial_index":23,"time_elapsed":36931,"internal_node_id":"0.0-2.0-0.21"},{"rt":839,"stimulus":"images/Human/With_Backgrounds/difficulty6_image9.png","response":5,"category":"Human","background_difficulty":"6","image_path":"images/Human/With_Backgrounds/difficulty6_image9.png","trial_type":"image-button-response","trial_index":24,"time_elapsed":37773,"internal_node_id":"0.0-2.0-0.22"},{"rt":1107,"stimulus":"images/Boat/With_Backgrounds/difficulty1_image9.png","response":0,"category":"Boat","background_difficulty":"1","image_path":"images/Boat/With_Backgrounds/difficulty1_image9.png","trial_type":"image-button-response","trial_index":25,"time_elapsed":38883,"internal_node_id":"0.0-2.0-0.23"},{"rt":1170,"stimulus":"images/Car/With_Backgrounds/difficulty8_image1.png","response":2,"category":"Car","background_difficulty":"8","image_path":"images/Car/With_Backgrounds/difficulty8_image1.png","trial_type":"image-button-response","trial_index":26,"time_elapsed":40056,"internal_node_id":"0.0-2.0-0.24"},{"rt":953,"stimulus":"images/Broccoli/With_Backgrounds/difficulty6_image0.png","response":1,"category":"Broccoli","background_difficulty":"6","image_path":"images/Broccoli/With_Backgrounds/difficulty6_image0.png","trial_type":"image-button-response","trial_index":27,"time_elapsed":41012,"internal_node_id":"0.0-2.0-0.25"},{"rt":1202,"stimulus":"images/Dog/With_Backgrounds/difficulty0_image7.png","response":4,"category":"Dog","background_difficulty":"0","image_path":"images/Dog/With_Backgrounds/difficulty0_image7.png","trial_type":"image-button-response","trial_index":28,"time_elapsed":42217,"internal_node_id":"0.0-2.0-0.26"},{"rt":1170,"stimulus":"images/Car/With_Backgrounds/difficulty7_image6.png","response":2,"category":"Car","background_difficulty":"7","image_path":"images/Car/With_Backgrounds/difficulty7_image6.png","trial_type":"image-button-response","trial_index":29,"time_elapsed":43391,"internal_node_id":"0.0-2.0-0.27"},{"rt":1660,"stimulus":"images/Tree/With_Backgrounds/difficulty6_image7.png","response":6,"category":"Tree","background_difficulty":"6","image_path":"images/Tree/With_Backgrounds/difficulty6_image7.png","trial_type":"image-button-response","trial_index":30,"time_elapsed":45054,"internal_node_id":"0.0-2.0-0.28"},{"rt":1307,"stimulus":"images/Dog/With_Backgrounds/difficulty4_image1.png","response":4,"category":"Dog","background_difficulty":"4","image_path":"images/Dog/With_Backgrounds/difficulty4_image1.png","trial_type":"image-button-response","trial_index":31,"time_elapsed":46363,"internal_node_id":"0.0-2.0-0.29"},{"rt":1227,"stimulus":"images/Boat/With_Backgrounds/difficulty5_image8.png","response":0,"category":"Boat","background_difficulty":"5","image_path":"images/Boat/With_Backgrounds/difficulty5_image8.png","trial_type":"image-button-response","trial_index":32,"time_elapsed":47593,"internal_node_id":"0.0-2.0-0.30"},{"rt":1676,"stimulus":"images/Human/With_Backgrounds/difficulty0_image5.png","response":5,"category":"Human","background_difficulty":"0","image_path":"images/Human/With_Backgrounds/difficulty0_image5.png","trial_type":"image-button-response","trial_index":33,"time_elapsed":49272,"internal_node_id":"0.0-2.0-0.31"},{"rt":1660,"stimulus":"images/Dog/With_Backgrounds/difficulty2_image2.png","response":4,"category":"Dog","background_difficulty":"2","image_path":"images/Dog/With_Backgrounds/difficulty2_image2.png","trial_type":"image-button-response","trial_index":34,"time_elapsed":50935,"internal_node_id":"0.0-2.0-0.32"},{"rt":1250,"stimulus":"images/Other/With_Backgrounds/difficulty1_image6.png","response":7,"category":"Other","background_difficulty":"1","image_path":"images/Other/With_Backgrounds/difficulty1_image6.png","trial_type":"image-button-response","trial_index":35,"time_elapsed":52188,"internal_node_id":"0.0-2.0-0.33"},{"rt":1628,"stimulus":"images/Other/With_Backgrounds/difficulty0_image3.png","response":7,"category":"Other","background_difficulty":"0","image_path":"images/Other/With_Backgrounds/difficulty0_image3.png","trial_type":"image-button-response","trial_index":36,"time_elapsed":53819,"internal_node_id":"0.0-2.0-0.34"},{"rt":1121,"stimulus":"images/Human/With_Backgrounds/difficulty4_image8.png","response":5,"category":"Human","background_difficulty":"4","image_path":"images/Human/With_Backgrounds/difficulty4_image8.png","trial_type":"image-button-response","trial_index":37,"time_elapsed":54944,"internal_node_id":"0.0-2.0-0.35"},{"rt":1169,"stimulus":"images/Cat/With_Backgrounds/difficulty1_image5.png","response":3,"category":"Cat","background_difficulty":"1","image_path":"images/Cat/With_Backgrounds/difficulty1_image5.png","trial_type":"image-button-response","trial_index":38,"time_elapsed":56116,"internal_node_id":"0.0-2.0-0.36"},{"rt":1049,"stimulus":"images/Boat/With_Backgrounds/difficulty3_image1.png","response":0,"category":"Boat","background_difficulty":"3","image_path":"images/Boat/With_Backgrounds/difficulty3_image1.png","trial_type":"image-button-response","trial_index":39,"time_elapsed":57168,"internal_node_id":"0.0-2.0-0.37"},{"rt":2046,"stimulus":"images/Car/With_Backgrounds/difficulty4_image7.png","response":2,"category":"Car","background_difficulty":"4","image_path":"images/Car/With_Backgrounds/difficulty4_image7.png","trial_type":"image-button-response","trial_index":40,"time_elapsed":59217,"internal_node_id":"0.0-2.0-0.38"},{"rt":1195,"stimulus":"images/Cat/With_Backgrounds/difficulty3_image9.png","response":3,"category":"Cat","background_difficulty":"3","image_path":"images/Cat/With_Backgrounds/difficulty3_image9.png","trial_type":"image-button-response","trial_index":41,"time_elapsed":60415,"internal_node_id":"0.0-2.0-0.39"},{"rt":905,"stimulus":"images/Cat/With_Backgrounds/difficulty0_image4.png","response":3,"category":"Cat","background_difficulty":"0","image_path":"images/Cat/With_Backgrounds/difficulty0_image4.png","trial_type":"image-button-response","trial_index":42,"time_elapsed":61323,"internal_node_id":"0.0-2.0-0.40"},{"rt":1177,"stimulus":"images/Dog/With_Backgrounds/difficulty6_image3.png","response":4,"category":"Dog","background_difficulty":"6","image_path":"images/Dog/With_Backgrounds/difficulty6_image3.png","trial_type":"image-button-response","trial_index":43,"time_elapsed":62503,"internal_node_id":"0.0-2.0-0.41"},{"rt":914,"stimulus":"images/Cat/With_Backgrounds/difficulty5_image8.png","response":3,"category":"Cat","background_difficulty":"5","image_path":"images/Cat/With_Backgrounds/difficulty5_image8.png","trial_type":"image-button-response","trial_index":44,"time_elapsed":63420,"internal_node_id":"0.0-2.0-0.42"},{"rt":993,"stimulus":"images/Boat/With_Backgrounds/difficulty8_image3.png","response":0,"category":"Boat","background_difficulty":"8","image_path":"images/Boat/With_Backgrounds/difficulty8_image3.png","trial_type":"image-button-response","trial_index":45,"time_elapsed":64416,"internal_node_id":"0.0-2.0-0.43"},{"rt":1396,"stimulus":"images/Boat/With_Backgrounds/difficulty2_image0.png","response":0,"category":"Boat","background_difficulty":"2","image_path":"images/Boat/With_Backgrounds/difficulty2_image0.png","trial_type":"image-button-response","trial_index":46,"time_elapsed":65815,"internal_node_id":"0.0-2.0-0.44"},{"rt":1997,"stimulus":"images/Car/With_Backgrounds/difficulty0_image8.png","response":2,"category":"Car","background_difficulty":"0","image_path":"images/Car/With_Backgrounds/difficulty0_image8.png","trial_type":"image-button-response","trial_index":47,"time_elapsed":67814,"internal_node_id":"0.0-2.0-0.45"},{"rt":785,"stimulus":"images/Broccoli/With_Backgrounds/difficulty0_image1.png","response":1,"category":"Broccoli","background_difficulty":"0","image_path":"images/Broccoli/With_Backgrounds/difficulty0_image1.png","trial_type":"image-button-response","trial_index":48,"time_elapsed":68603,"internal_node_id":"0.0-2.0-0.46"},{"rt":1130,"stimulus":"images/Human/With_Backgrounds/difficulty7_image6.png","response":5,"category":"Human","background_difficulty":"7","image_path":"images/Human/With_Backgrounds/difficulty7_image6.png","trial_type":"image-button-response","trial_index":49,"time_elapsed":69735,"internal_node_id":"0.0-2.0-0.47"},{"rt":1499,"stimulus":"images/Tree/With_Backgrounds/difficulty1_image5.png","response":6,"category":"Tree","background_difficulty":"1","image_path":"images/Tree/With_Backgrounds/difficulty1_image5.png","trial_type":"image-button-response","trial_index":50,"time_elapsed":71237,"internal_node_id":"0.0-2.0-0.48"},{"rt":1781,"stimulus":"images/Other/With_Backgrounds/difficulty3_image5.png","response":7,"category":"Other","background_difficulty":"3","image_path":"images/Other/With_Backgrounds/difficulty3_image5.png","trial_type":"image-button-response","trial_index":51,"time_elapsed":73020,"internal_node_id":"0.0-2.0-0.49"},{"rt":987,"stimulus":"images/Car/With_Backgrounds/difficulty3_image4.png","response":2,"category":"Car","background_difficulty":"3","image_path":"images/Car/With_Backgrounds/difficulty3_image4.png","trial_type":"image-button-response","trial_index":52,"time_elapsed":74008,"internal_node_id":"0.0-2.0-0.50"},{"rt":772,"stimulus":"images/Car/With_Backgrounds/difficulty6_image2.png","response":2,"category":"Car","background_difficulty":"6","image_path":"images/Car/With_Backgrounds/difficulty6_image2.png","trial_type":"image-button-response","trial_index":53,"time_elapsed":74781,"internal_node_id":"0.0-2.0-0.51"},{"rt":1032,"stimulus":"images/Dog/With_Backgrounds/difficulty3_image0.png","response":4,"category":"Dog","background_difficulty":"3","image_path":"images/Dog/With_Backgrounds/difficulty3_image0.png","trial_type":"image-button-response","trial_index":54,"time_elapsed":75816,"internal_node_id":"0.0-2.0-0.52"},{"rt":1076,"stimulus":"images/Other/With_Backgrounds/difficulty8_image7.png","response":7,"category":"Other","background_difficulty":"8","image_path":"images/Other/With_Backgrounds/difficulty8_image7.png","trial_type":"image-button-response","trial_index":55,"time_elapsed":76894,"internal_node_id":"0.0-2.0-0.53"},{"rt":905,"stimulus":"images/Broccoli/With_Backgrounds/difficulty1_image6.png","response":1,"category":"Broccoli","background_difficulty":"1","image_path":"images/Broccoli/With_Backgrounds/difficulty1_image6.png","trial_type":"image-button-response","trial_index":56,"time_elapsed":77802,"internal_node_id":"0.0-2.0-0.54"},{"rt":849,"stimulus":"images/Broccoli/With_Backgrounds/difficulty7_image2.png","response":1,"category":"Broccoli","background_difficulty":"7","image_path":"images/Broccoli/With_Backgrounds/difficulty7_image2.png","trial_type":"image-button-response","trial_index":57,"time_elapsed":78654,"internal_node_id":"0.0-2.0-0.55"},{"rt":921,"stimulus":"images/Cat/With_Backgrounds/difficulty8_image3.png","response":2,"category":"Cat","background_difficulty":"8","image_path":"images/Cat/With_Backgrounds/difficulty8_image3.png","trial_type":"image-button-response","trial_index":58,"time_elapsed":79578,"internal_node_id":"0.0-2.0-0.56"},{"rt":1965,"stimulus":"images/Broccoli/With_Backgrounds/difficulty4_image7.png","response":1,"category":"Broccoli","background_difficulty":"4","image_path":"images/Broccoli/With_Backgrounds/difficulty4_image7.png","trial_type":"image-button-response","trial_index":59,"time_elapsed":81546,"internal_node_id":"0.0-2.0-0.57"},{"rt":1660,"stimulus":"images/Other/With_Backgrounds/difficulty5_image0.png","response":7,"category":"Other","background_difficulty":"5","image_path":"images/Other/With_Backgrounds/difficulty5_image0.png","trial_type":"image-button-response","trial_index":60,"time_elapsed":83210,"internal_node_id":"0.0-2.0-0.58"},{"rt":977,"stimulus":"images/Dog/With_Backgrounds/difficulty7_image8.png","response":4,"category":"Dog","background_difficulty":"7","image_path":"images/Dog/With_Backgrounds/difficulty7_image8.png","trial_type":"image-button-response","trial_index":61,"time_elapsed":84190,"internal_node_id":"0.0-2.0-0.59"},{"rt":960,"stimulus":"images/Cat/With_Backgrounds/difficulty6_image6.png","response":3,"category":"Cat","background_difficulty":"6","image_path":"images/Cat/With_Backgrounds/difficulty6_image6.png","trial_type":"image-button-response","trial_index":62,"time_elapsed":85153,"internal_node_id":"0.0-2.0-0.60"},{"rt":1332,"stimulus":"images/Tree/With_Backgrounds/difficulty8_image9.png","response":6,"category":"Tree","background_difficulty":"8","image_path":"images/Tree/With_Backgrounds/difficulty8_image9.png","trial_type":"image-button-response","trial_index":63,"time_elapsed":86488,"internal_node_id":"0.0-2.0-0.61"},{"rt":1314,"stimulus":"images/Tree/With_Backgrounds/difficulty4_image0.png","response":6,"category":"Tree","background_difficulty":"4","image_path":"images/Tree/With_Backgrounds/difficulty4_image0.png","trial_type":"image-button-response","trial_index":64,"time_elapsed":87805,"internal_node_id":"0.0-2.0-0.62"},{"rt":1331,"stimulus":"images/Dog/With_Backgrounds/difficulty5_image5.png","response":4,"category":"Dog","background_difficulty":"5","image_path":"images/Dog/With_Backgrounds/difficulty5_image5.png","trial_type":"image-button-response","trial_index":65,"time_elapsed":89138,"internal_node_id":"0.0-2.0-0.63"},{"rt":1428,"stimulus":"images/Boat/With_Backgrounds/difficulty4_image7.png","response":0,"category":"Boat","background_difficulty":"4","image_path":"images/Boat/With_Backgrounds/difficulty4_image7.png","trial_type":"image-button-response","trial_index":66,"time_elapsed":90569,"internal_node_id":"0.0-2.0-0.64"},{"rt":680,"stimulus":"images/Boat/With_Backgrounds/difficulty0_image6.png","response":0,"category":"Boat","background_difficulty":"0","image_path":"images/Boat/With_Backgrounds/difficulty0_image6.png","trial_type":"image-button-response","trial_index":67,"time_elapsed":91252,"internal_node_id":"0.0-2.0-0.65"},{"rt":1171,"stimulus":"images/Human/With_Backgrounds/difficulty5_image2.png","response":5,"category":"Human","background_difficulty":"5","image_path":"images/Human/With_Backgrounds/difficulty5_image2.png","trial_type":"image-button-response","trial_index":68,"time_elapsed":92425,"internal_node_id":"0.0-2.0-0.66"},{"rt":929,"stimulus":"images/Tree/With_Backgrounds/difficulty0_image1.png","response":6,"category":"Tree","background_difficulty":"0","image_path":"images/Tree/With_Backgrounds/difficulty0_image1.png","trial_type":"image-button-response","trial_index":69,"time_elapsed":93357,"internal_node_id":"0.0-2.0-0.67"},{"rt":857,"stimulus":"images/Tree/With_Backgrounds/difficulty3_image4.png","response":6,"category":"Tree","background_difficulty":"3","image_path":"images/Tree/With_Backgrounds/difficulty3_image4.png","trial_type":"image-button-response","trial_index":70,"time_elapsed":94216,"internal_node_id":"0.0-2.0-0.68"},{"rt":1371,"stimulus":"images/Car/With_Backgrounds/difficulty1_image3.png","response":2,"category":"Car","background_difficulty":"1","image_path":"images/Car/With_Backgrounds/difficulty1_image3.png","trial_type":"image-button-response","trial_index":71,"time_elapsed":95591,"internal_node_id":"0.0-2.0-0.69"},{"rt":1025,"stimulus":"images/Tree/With_Backgrounds/difficulty2_image2.png","response":6,"category":"Tree","background_difficulty":"2","image_path":"images/Tree/With_Backgrounds/difficulty2_image2.png","trial_type":"image-button-response","trial_index":72,"time_elapsed":96618,"internal_node_id":"0.0-2.0-0.70"},{"rt":1982,"stimulus":"images/Other/With_Backgrounds/difficulty6_image1.png","response":7,"category":"Other","background_difficulty":"6","image_path":"images/Other/With_Backgrounds/difficulty6_image1.png","trial_type":"image-button-response","trial_index":73,"time_elapsed":98603,"internal_node_id":"0.0-2.0-0.71"},{"rt":890,"stimulus":["<h2>Press the button below to end experiment.</h2><p>Thank you for participating!</p>"],"response":0,"trial_type":"html-button-response","trial_index":74,"time_elapsed":99495,"internal_node_id":"0.0-3.0"}]