[{"success":true,"timeout":false,"failed_images":[],"failed_audio":[],"failed_video":[],"trial_type":"preload","trial_index":0,"time_elapsed":2121,"internal_node_id":"0.0-0.0"},{"rt":1321,"stimulus":["<h2>Noisy background image classification</h2><p>In this experiment you will briefly see images on top of colored squares of various sizes.</p><p>Your task is to report what each image is, selecting \"None of the Above\" if none of the given options are correct.</p> <p>The possible options are <strong>Boat</strong>, <strong>Broccoli</strong>, <strong>Car</strong>, <strong>Cat</strong>, <strong>Dog</strong>, <strong>Human</strong>, <strong>Tree</strong>, and <strong>None of the Above</strong>"],"response":0,"trial_type":"html-button-response","trial_index":1,"time_elapsed":3445,"internal_node_id":"0.0-1.0"},{"rt":2633,"stimulus":"images/Boat/With_Backgrounds/difficulty0_image8.png","response":0,"category":"Boat","background_difficulty":"0","image_path":"images/Boat/With_Backgrounds/difficulty0_image8.png","trial_type":"image-button-response","trial_index":2,"time_elapsed":6085,"internal_node_id":"0.0-2.0-0.0"},{"rt":1761,"stimulus":"images/Dog/With_Backgrounds/difficulty5_image5.png","response":4,"category":"Dog","background_difficulty":"5","image_path":"images/Dog/With_Backgrounds/difficulty5_image5.png","trial_type":"image-button-response","trial_index":3,"time_elapsed":7851,"internal_node_id":"0.0-2.0-0.1"},{"rt":1912,"stimulus":"images/Human/With_Backgrounds/difficulty2_image7.png","response":5,"category":"Human","background_difficulty":"2","image_path":"images/Human/With_Backgrounds/difficulty2_image7.png","trial_type":"image-button-response","trial_index":4,"time_elapsed":9769,"internal_node_id":"0.0-2.0-0.2"},{"rt":4616,"stimulus":"images/Other/With_Backgrounds/difficulty8_image1.png","response":7,"category":"Other","background_difficulty":"8","image_path":"images/Other/With_Backgrounds/difficulty8_image1.png","trial_type":"image-button-response","trial_index":5,"time_elapsed":14389,"internal_node_id":"0.0-2.0-0.3"},{"rt":2842,"stimulus":"images/Tree/With_Backgrounds/difficulty0_image6.png","response":6,"category":"Tree","background_difficulty":"0","image_path":"images/Tree/With_Backgrounds/difficulty0_image6.png","trial_type":"image-button-response","trial_index":6,"time_elapsed":17237,"internal_node_id":"0.0-2.0-0.4"},{"rt":2035,"stimulus":"images/Car/With_Backgrounds/difficulty7_image2.png","response":2,"category":"Car","background_difficulty":"7","image_path":"images/Car/With_Backgrounds/difficulty7_image2.png","trial_type":"image-button-response","trial_index":7,"time_elapsed":19277,"internal_node_id":"0.0-2.0-0.5"},{"rt":1470,"stimulus":"images/Human/With_Backgrounds/difficulty3_image9.png","response":5,"category":"Human","background_difficulty":"3","image_path":"images/Human/With_Backgrounds/difficulty3_image9.png","trial_type":"image-button-response","trial_index":8,"time_elapsed":20751,"internal_node_id":"0.0-2.0-0.6"},{"rt":1429,"stimulus":"images/Dog/With_Backgrounds/difficulty0_image3.png","response":4,"category":"Dog","background_difficulty":"0","image_path":"images/Dog/With_Backgrounds/difficulty0_image3.png","trial_type":"image-button-response","trial_index":9,"time_elapsed":22186,"internal_node_id":"0.0-2.0-0.7"},{"rt":2110,"stimulus":"images/Broccoli/With_Backgrounds/difficulty6_image8.png","response":1,"category":"Broccoli","background_difficulty":"6","image_path":"images/Broccoli/With_Backgrounds/difficulty6_image8.png","trial_type":"image-button-response","trial_index":10,"time_elapsed":24300,"internal_node_id":"0.0-2.0-0.8"},{"rt":1302,"stimulus":"images/Dog/With_Backgrounds/difficulty7_image7.png","response":4,"category":"Dog","background_difficulty":"7","image_path":"images/Dog/With_Backgrounds/difficulty7_image7.png","trial_type":"image-button-response","trial_index":11,"time_elapsed":25608,"internal_node_id":"0.0-2.0-0.9"},{"rt":1586,"stimulus":"images/Car/With_Backgrounds/difficulty6_image9.png","response":2,"category":"Car","background_difficulty":"6","image_path":"images/Car/With_Backgrounds/difficulty6_image9.png","trial_type":"image-button-response","trial_index":12,"time_elapsed":27199,"internal_node_id":"0.0-2.0-0.10"},{"rt":1283,"stimulus":"images/Dog/With_Backgrounds/difficulty3_image0.png","response":4,"category":"Dog","background_difficulty":"3","image_path":"images/Dog/With_Backgrounds/difficulty3_image0.png","trial_type":"image-button-response","trial_index":13,"time_elapsed":28487,"internal_node_id":"0.0-2.0-0.11"},{"rt":1302,"stimulus":"images/Car/With_Backgrounds/difficulty4_image3.png","response":2,"category":"Car","background_difficulty":"4","image_path":"images/Car/With_Backgrounds/difficulty4_image3.png","trial_type":"image-button-response","trial_index":14,"time_elapsed":29794,"internal_node_id":"0.0-2.0-0.12"},{"rt":1328,"stimulus":"images/Human/With_Backgrounds/difficulty5_image5.png","response":5,"category":"Human","background_difficulty":"5","image_path":"images/Human/With_Backgrounds/difficulty5_image5.png","trial_type":"image-button-response","trial_index":15,"time_elapsed":31127,"internal_node_id":"0.0-2.0-0.13"},{"rt":1293,"stimulus":"images/Car/With_Backgrounds/difficulty0_image6.png","response":2,"category":"Car","background_difficulty":"0","image_path":"images/Car/With_Backgrounds/difficulty0_image6.png","trial_type":"image-button-response","trial_index":16,"time_elapsed":32425,"internal_node_id":"0.0-2.0-0.14"},{"rt":1235,"stimulus":"images/Car/With_Backgrounds/difficulty5_image7.png","response":2,"category":"Car","background_difficulty":"5","image_path":"images/Car/With_Backgrounds/difficulty5_image7.png","trial_type":"image-button-response","trial_index":17,"time_elapsed":33664,"internal_node_id":"0.0-2.0-0.15"},{"rt":1788,"stimulus":"images/Cat/With_Backgrounds/difficulty7_image8.png","response":7,"category":"Cat","background_difficulty":"7","image_path":"images/Cat/With_Backgrounds/difficulty7_image8.png","trial_type":"image-button-response","trial_index":18,"time_elapsed":35454,"internal_node_id":"0.0-2.0-0.16"},{"rt":1865,"stimulus":"images/Boat/With_Backgrounds/difficulty6_image9.png","response":0,"category":"Boat","background_difficulty":"6","image_path":"images/Boat/With_Backgrounds/difficulty6_image9.png","trial_type":"image-button-response","trial_index":19,"time_elapsed":37323,"internal_node_id":"0.0-2.0-0.17"},{"rt":1120,"stimulus":"images/Boat/With_Backgrounds/difficulty2_image6.png","response":0,"category":"Boat","background_difficulty":"2","image_path":"images/Boat/With_Backgrounds/difficulty2_image6.png","trial_type":"image-button-response","trial_index":20,"time_elapsed":38446,"internal_node_id":"0.0-2.0-0.18"},{"rt":1262,"stimulus":"images/Dog/With_Backgrounds/difficulty4_image8.png","response":4,"category":"Dog","background_difficulty":"4","image_path":"images/Dog/With_Backgrounds/difficulty4_image8.png","trial_type":"image-button-response","trial_index":21,"time_elapsed":39713,"internal_node_id":"0.0-2.0-0.19"},{"rt":1185,"stimulus":"images/Boat/With_Backgrounds/difficulty8_image4.png","response":0,"category":"Boat","background_difficulty":"8","image_path":"images/Boat/With_Backgrounds/difficulty8_image4.png","trial_type":"image-button-response","trial_index":22,"time_elapsed":40902,"internal_node_id":"0.0-2.0-0.20"},{"rt":1363,"stimulus":"images/Boat/With_Backgrounds/difficulty3_image7.png","response":0,"category":"Boat","background_difficulty":"3","image_path":"images/Boat/With_Backgrounds/difficulty3_image7.png","trial_type":"image-button-response","trial_index":23,"time_elapsed":42269,"internal_node_id":"0.0-2.0-0.21"},{"rt":2285,"stimulus":"images/Tree/With_Backgrounds/difficulty5_image4.png","response":7,"category":"Tree","background_difficulty":"5","image_path":"images/Tree/With_Backgrounds/difficulty5_image4.png","trial_type":"image-button-response","trial_index":24,"time_elapsed":44560,"internal_node_id":"0.0-2.0-0.22"},{"rt":2185,"stimulus":"images/Broccoli/With_Backgrounds/difficulty2_image1.png","response":1,"category":"Broccoli","background_difficulty":"2","image_path":"images/Broccoli/With_Backgrounds/difficulty2_image1.png","trial_type":"image-button-response","trial_index":25,"time_elapsed":46750,"internal_node_id":"0.0-2.0-0.23"},{"rt":1244,"stimulus":"images/Broccoli/With_Backgrounds/difficulty5_image0.png","response":1,"category":"Broccoli","background_difficulty":"5","image_path":"images/Broccoli/With_Backgrounds/difficulty5_image0.png","trial_type":"image-button-response","trial_index":26,"time_elapsed":47999,"internal_node_id":"0.0-2.0-0.24"},{"rt":1235,"stimulus":"images/Car/With_Backgrounds/difficulty8_image5.png","response":2,"category":"Car","background_difficulty":"8","image_path":"images/Car/With_Backgrounds/difficulty8_image5.png","trial_type":"image-button-response","trial_index":27,"time_elapsed":49239,"internal_node_id":"0.0-2.0-0.25"},{"rt":1714,"stimulus":"images/Cat/With_Backgrounds/difficulty5_image9.png","response":3,"category":"Cat","background_difficulty":"5","image_path":"images/Cat/With_Backgrounds/difficulty5_image9.png","trial_type":"image-button-response","trial_index":28,"time_elapsed":50957,"internal_node_id":"0.0-2.0-0.26"},{"rt":1144,"stimulus":"images/Cat/With_Backgrounds/difficulty3_image2.png","response":3,"category":"Cat","background_difficulty":"3","image_path":"images/Cat/With_Backgrounds/difficulty3_image2.png","trial_type":"image-button-response","trial_index":29,"time_elapsed":52106,"internal_node_id":"0.0-2.0-0.27"},{"rt":2398,"stimulus":"images/Other/With_Backgrounds/difficulty3_image5.png","response":7,"category":"Other","background_difficulty":"3","image_path":"images/Other/With_Backgrounds/difficulty3_image5.png","trial_type":"image-button-response","trial_index":30,"time_elapsed":54509,"internal_node_id":"0.0-2.0-0.28"},{"rt":1282,"stimulus":"images/Human/With_Backgrounds/difficulty8_image2.png","response":5,"category":"Human","background_difficulty":"8","image_path":"images/Human/With_Backgrounds/difficulty8_image2.png","trial_type":"image-button-response","trial_index":31,"time_elapsed":55796,"internal_node_id":"0.0-2.0-0.29"},{"rt":1653,"stimulus":"images/Broccoli/With_Backgrounds/difficulty7_image9.png","response":1,"category":"Broccoli","background_difficulty":"7","image_path":"images/Broccoli/With_Backgrounds/difficulty7_image9.png","trial_type":"image-button-response","trial_index":32,"time_elapsed":57453,"internal_node_id":"0.0-2.0-0.30"},{"rt":1661,"stimulus":"images/Tree/With_Backgrounds/difficulty6_image8.png","response":6,"category":"Tree","background_difficulty":"6","image_path":"images/Tree/With_Backgrounds/difficulty6_image8.png","trial_type":"image-button-response","trial_index":33,"time_elapsed":59119,"internal_node_id":"0.0-2.0-0.31"},{"rt":1460,"stimulus":"images/Broccoli/With_Backgrounds/difficulty1_image5.png","response":1,"category":"Broccoli","background_difficulty":"1","image_path":"images/Broccoli/With_Backgrounds/difficulty1_image5.png","trial_type":"image-button-response","trial_index":34,"time_elapsed":60584,"internal_node_id":"0.0-2.0-0.32"},{"rt":1172,"stimulus":"images/Human/With_Backgrounds/difficulty4_image4.png","response":5,"category":"Human","background_difficulty":"4","image_path":"images/Human/With_Backgrounds/difficulty4_image4.png","trial_type":"image-button-response","trial_index":35,"time_elapsed":61761,"internal_node_id":"0.0-2.0-0.33"},{"rt":1444,"stimulus":"images/Tree/With_Backgrounds/difficulty3_image9.png","response":6,"category":"Tree","background_difficulty":"3","image_path":"images/Tree/With_Backgrounds/difficulty3_image9.png","trial_type":"image-button-response","trial_index":36,"time_elapsed":63209,"internal_node_id":"0.0-2.0-0.34"},{"rt":1961,"stimulus":"images/Cat/With_Backgrounds/difficulty6_image6.png","response":3,"category":"Cat","background_difficulty":"6","image_path":"images/Cat/With_Backgrounds/difficulty6_image6.png","trial_type":"image-button-response","trial_index":37,"time_elapsed":65174,"internal_node_id":"0.0-2.0-0.35"},{"rt":1554,"stimulus":"images/Other/With_Backgrounds/difficulty7_image9.png","response":7,"category":"Other","background_difficulty":"7","image_path":"images/Other/With_Backgrounds/difficulty7_image9.png","trial_type":"image-button-response","trial_index":38,"time_elapsed":66733,"internal_node_id":"0.0-2.0-0.36"},{"rt":1768,"stimulus":"images/Other/With_Backgrounds/difficulty1_image0.png","response":7,"category":"Other","background_difficulty":"1","image_path":"images/Other/With_Backgrounds/difficulty1_image0.png","trial_type":"image-button-response","trial_index":39,"time_elapsed":68506,"internal_node_id":"0.0-2.0-0.37"},{"rt":1379,"stimulus":"images/Tree/With_Backgrounds/difficulty7_image3.png","response":6,"category":"Tree","background_difficulty":"7","image_path":"images/Tree/With_Backgrounds/difficulty7_image3.png","trial_type":"image-button-response","trial_index":40,"time_elapsed":69889,"internal_node_id":"0.0-2.0-0.38"},{"rt":1259,"stimulus":"images/Human/With_Backgrounds/difficulty6_image3.png","response":5,"category":"Human","background_difficulty":"6","image_path":"images/Human/With_Backgrounds/difficulty6_image3.png","trial_type":"image-button-response","trial_index":41,"time_elapsed":71152,"internal_node_id":"0.0-2.0-0.39"},{"rt":1319,"stimulus":"images/Dog/With_Backgrounds/difficulty8_image6.png","response":4,"category":"Dog","background_difficulty":"8","image_path":"images/Dog/With_Backgrounds/difficulty8_image6.png","trial_type":"image-button-response","trial_index":42,"time_elapsed":72474,"internal_node_id":"0.0-2.0-0.40"},{"rt":1324,"stimulus":"images/Car/With_Backgrounds/difficulty2_image1.png","response":2,"category":"Car","background_difficulty":"2","image_path":"images/Car/With_Backgrounds/difficulty2_image1.png","trial_type":"image-button-response","trial_index":43,"time_elapsed":73802,"internal_node_id":"0.0-2.0-0.41"},{"rt":1667,"stimulus":"images/Dog/With_Backgrounds/difficulty2_image1.png","response":4,"category":"Dog","background_difficulty":"2","image_path":"images/Dog/With_Backgrounds/difficulty2_image1.png","trial_type":"image-button-response","trial_index":44,"time_elapsed":75475,"internal_node_id":"0.0-2.0-0.42"},{"rt":1037,"stimulus":"images/Human/With_Backgrounds/difficulty7_image6.png","response":5,"category":"Human","background_difficulty":"7","image_path":"images/Human/With_Backgrounds/difficulty7_image6.png","trial_type":"image-button-response","trial_index":45,"time_elapsed":76516,"internal_node_id":"0.0-2.0-0.43"},{"rt":1269,"stimulus":"images/Cat/With_Backgrounds/difficulty2_image7.png","response":3,"category":"Cat","background_difficulty":"2","image_path":"images/Cat/With_Backgrounds/difficulty2_image7.png","trial_type":"image-button-response","trial_index":46,"time_elapsed":77790,"internal_node_id":"0.0-2.0-0.44"},{"rt":1241,"stimulus":"images/Other/With_Backgrounds/difficulty6_image6.png","response":7,"category":"Other","background_difficulty":"6","image_path":"images/Other/With_Backgrounds/difficulty6_image6.png","trial_type":"image-button-response","trial_index":47,"time_elapsed":79036,"internal_node_id":"0.0-2.0-0.45"},{"rt":1396,"stimulus":"images/Boat/With_Backgrounds/difficulty5_image5.png","response":0,"category":"Boat","background_difficulty":"5","image_path":"images/Boat/With_Backgrounds/difficulty5_image5.png","trial_type":"image-button-response","trial_index":48,"time_elapsed":80436,"internal_node_id":"0.0-2.0-0.46"},{"rt":1188,"stimulus":"images/Car/With_Backgrounds/difficulty3_image8.png","response":2,"category":"Car","background_difficulty":"3","image_path":"images/Car/With_Backgrounds/difficulty3_image8.png","trial_type":"image-button-response","trial_index":49,"time_elapsed":81628,"internal_node_id":"0.0-2.0-0.47"},{"rt":2141,"stimulus":"images/Cat/With_Backgrounds/difficulty0_image4.png","response":3,"category":"Cat","background_difficulty":"0","image_path":"images/Cat/With_Backgrounds/difficulty0_image4.png","trial_type":"image-button-response","trial_index":50,"time_elapsed":83775,"internal_node_id":"0.0-2.0-0.48"},{"rt":1094,"stimulus":"images/Dog/With_Backgrounds/difficulty1_image9.png","response":4,"category":"Dog","background_difficulty":"1","image_path":"images/Dog/With_Backgrounds/difficulty1_image9.png","trial_type":"image-button-response","trial_index":51,"time_elapsed":84875,"internal_node_id":"0.0-2.0-0.49"},{"rt":1438,"stimulus":"images/Boat/With_Backgrounds/difficulty7_image1.png","response":0,"category":"Boat","background_difficulty":"7","image_path":"images/Boat/With_Backgrounds/difficulty7_image1.png","trial_type":"image-button-response","trial_index":52,"time_elapsed":86318,"internal_node_id":"0.0-2.0-0.50"},{"rt":1250,"stimulus":"images/Tree/With_Backgrounds/difficulty1_image1.png","response":6,"category":"Tree","background_difficulty":"1","image_path":"images/Tree/With_Backgrounds/difficulty1_image1.png","trial_type":"image-button-response","trial_index":53,"time_elapsed":87573,"internal_node_id":"0.0-2.0-0.51"},{"rt":1438,"stimulus":"images/Boat/With_Backgrounds/difficulty4_image2.png","response":0,"category":"Boat","background_difficulty":"4","image_path":"images/Boat/With_Backgrounds/difficulty4_image2.png","trial_type":"image-button-response","trial_index":54,"time_elapsed":89017,"internal_node_id":"0.0-2.0-0.52"},{"rt":2284,"stimulus":"images/Other/With_Backgrounds/difficulty4_image2.png","response":7,"category":"Other","background_difficulty":"4","image_path":"images/Other/With_Backgrounds/difficulty4_image2.png","trial_type":"image-button-response","trial_index":55,"time_elapsed":91306,"internal_node_id":"0.0-2.0-0.53"},{"rt":1362,"stimulus":"images/Tree/With_Backgrounds/difficulty8_image2.png","response":6,"category":"Tree","background_difficulty":"8","image_path":"images/Tree/With_Backgrounds/difficulty8_image2.png","trial_type":"image-button-response","trial_index":56,"time_elapsed":92673,"internal_node_id":"0.0-2.0-0.54"},{"rt":1116,"stimulus":"images/Car/With_Backgrounds/difficulty1_image4.png","response":2,"category":"Car","background_difficulty":"1","image_path":"images/Car/With_Backgrounds/difficulty1_image4.png","trial_type":"image-button-response","trial_index":57,"time_elapsed":93796,"internal_node_id":"0.0-2.0-0.55"},{"rt":1480,"stimulus":"images/Cat/With_Backgrounds/difficulty1_image1.png","response":3,"category":"Cat","background_difficulty":"1","image_path":"images/Cat/With_Backgrounds/difficulty1_image1.png","trial_type":"image-button-response","trial_index":58,"time_elapsed":95281,"internal_node_id":"0.0-2.0-0.56"},{"rt":1144,"stimulus":"images/Other/With_Backgrounds/difficulty5_image8.png","response":7,"category":"Other","background_difficulty":"5","image_path":"images/Other/With_Backgrounds/difficulty5_image8.png","trial_type":"image-button-response","trial_index":59,"time_elapsed":96430,"internal_node_id":"0.0-2.0-0.57"},{"rt":1010,"stimulus":"images/Human/With_Backgrounds/difficulty0_image0.png","response":5,"category":"Human","background_difficulty":"0","image_path":"images/Human/With_Backgrounds/difficulty0_image0.png","trial_type":"image-button-response","trial_index":60,"time_elapsed":97445,"internal_node_id":"0.0-2.0-0.58"},{"rt":1486,"stimulus":"images/Boat/With_Backgrounds/difficulty1_image0.png","response":0,"category":"Boat","background_difficulty":"1","image_path":"images/Boat/With_Backgrounds/difficulty1_image0.png","trial_type":"image-button-response","trial_index":61,"time_elapsed":98936,"internal_node_id":"0.0-2.0-0.59"},{"rt":1209,"stimulus":"images/Human/With_Backgrounds/difficulty1_image1.png","response":5,"category":"Human","background_difficulty":"1","image_path":"images/Human/With_Backgrounds/difficulty1_image1.png","trial_type":"image-button-response","trial_index":62,"time_elapsed":100150,"internal_node_id":"0.0-2.0-0.60"},{"rt":2022,"stimulus":"images/Dog/With_Backgrounds/difficulty6_image4.png","response":4,"category":"Dog","background_difficulty":"6","image_path":"images/Dog/With_Backgrounds/difficulty6_image4.png","trial_type":"image-button-response","trial_index":63,"time_elapsed":102176,"internal_node_id":"0.0-2.0-0.61"},{"rt":1436,"stimulus":"images/Broccoli/With_Backgrounds/difficulty0_image7.png","response":1,"category":"Broccoli","background_difficulty":"0","image_path":"images/Broccoli/With_Backgrounds/difficulty0_image7.png","trial_type":"image-button-response","trial_index":64,"time_elapsed":103616,"internal_node_id":"0.0-2.0-0.62"},{"rt":2084,"stimulus":"images/Cat/With_Backgrounds/difficulty8_image5.png","response":3,"category":"Cat","background_difficulty":"8","image_path":"images/Cat/With_Backgrounds/difficulty8_image5.png","trial_type":"image-button-response","trial_index":65,"time_elapsed":105705,"internal_node_id":"0.0-2.0-0.63"},{"rt":1186,"stimulus":"images/Cat/With_Backgrounds/difficulty4_image0.png","response":4,"category":"Cat","background_difficulty":"4","image_path":"images/Cat/With_Backgrounds/difficulty4_image0.png","trial_type":"image-button-response","trial_index":66,"time_elapsed":106896,"internal_node_id":"0.0-2.0-0.64"},{"rt":1845,"stimulus":"images/Tree/With_Backgrounds/difficulty2_image7.png","response":6,"category":"Tree","background_difficulty":"2","image_path":"images/Tree/With_Backgrounds/difficulty2_image7.png","trial_type":"image-button-response","trial_index":67,"time_elapsed":108745,"internal_node_id":"0.0-2.0-0.65"},{"rt":1293,"stimulus":"images/Other/With_Backgrounds/difficulty0_image4.png","response":7,"category":"Other","background_difficulty":"0","image_path":"images/Other/With_Backgrounds/difficulty0_image4.png","trial_type":"image-button-response","trial_index":68,"time_elapsed":110044,"internal_node_id":"0.0-2.0-0.66"},{"rt":1002,"stimulus":"images/Tree/With_Backgrounds/difficulty4_image0.png","response":7,"category":"Tree","background_difficulty":"4","image_path":"images/Tree/With_Backgrounds/difficulty4_image0.png","trial_type":"image-button-response","trial_index":69,"time_elapsed":111052,"internal_node_id":"0.0-2.0-0.67"},{"rt":1860,"stimulus":"images/Other/With_Backgrounds/difficulty2_image3.png","response":7,"category":"Other","background_difficulty":"2","image_path":"images/Other/With_Backgrounds/difficulty2_image3.png","trial_type":"image-button-response","trial_index":70,"time_elapsed":112917,"internal_node_id":"0.0-2.0-0.68"},{"rt":1845,"stimulus":"images/Broccoli/With_Backgrounds/difficulty8_image3.png","response":1,"category":"Broccoli","background_difficulty":"8","image_path":"images/Broccoli/With_Backgrounds/difficulty8_image3.png","trial_type":"image-button-response","trial_index":71,"time_elapsed":114767,"internal_node_id":"0.0-2.0-0.69"},{"rt":1145,"stimulus":"images/Broccoli/With_Backgrounds/difficulty4_image4.png","response":1,"category":"Broccoli","background_difficulty":"4","image_path":"images/Broccoli/With_Backgrounds/difficulty4_image4.png","trial_type":"image-button-response","trial_index":72,"time_elapsed":115916,"internal_node_id":"0.0-2.0-0.70"},{"rt":1016,"stimulus":"images/Broccoli/With_Backgrounds/difficulty3_image6.png","response":1,"category":"Broccoli","background_difficulty":"3","image_path":"images/Broccoli/With_Backgrounds/difficulty3_image6.png","trial_type":"image-button-response","trial_index":73,"time_elapsed":116938,"internal_node_id":"0.0-2.0-0.71"},{"rt":1355,"stimulus":["<h2>Press the button below to end experiment.</h2><p>Thank you for participating!</p>"],"response":0,"trial_type":"html-button-response","trial_index":74,"time_elapsed":118295,"internal_node_id":"0.0-3.0"}]