[{"success":true,"timeout":false,"failed_images":[],"failed_audio":[],"failed_video":[],"trial_type":"preload","trial_index":0,"time_elapsed":829,"internal_node_id":"0.0-0.0"},{"rt":15636,"stimulus":["<h2>Noisy background image classification</h2><p>In this experiment you will briefly see images on top of colored squares of various sizes.</p><p>Your task is to report what each image is, selecting \"None of the Above\" if none of the given options are correct.</p> <p>The possible options are <strong>Boat</strong>, <strong>Broccoli</strong>, <strong>Car</strong>, <strong>Cat</strong>, <strong>Dog</strong>, <strong>Human</strong>, <strong>Tree</strong>, and <strong>None of the Above</strong>"],"response":0,"trial_type":"html-button-response","trial_index":1,"time_elapsed":16467,"internal_node_id":"0.0-1.0"},{"rt":2792,"stimulus":"images/Human/With_Backgrounds/difficulty3_image0.png","response":5,"category":"Human","background_difficulty":"3","image_path":"images/Human/With_Backgrounds/difficulty3_image0.png","trial_type":"image-button-response","trial_index":2,"time_elapsed":19263,"internal_node_id":"0.0-2.0-0.0"},{"rt":1564,"stimulus":"images/Car/With_Backgrounds/difficulty4_image1.png","response":2,"category":"Car","background_difficulty":"4","image_path":"images/Car/With_Backgrounds/difficulty4_image1.png","trial_type":"image-button-response","trial_index":3,"time_elapsed":20828,"internal_node_id":"0.0-2.0-0.1"},{"rt":3462,"stimulus":"images/Tree/With_Backgrounds/difficulty4_image1.png","response":6,"category":"Tree","background_difficulty":"4","image_path":"images/Tree/With_Backgrounds/difficulty4_image1.png","trial_type":"image-button-response","trial_index":4,"time_elapsed":24292,"internal_node_id":"0.0-2.0-0.2"},{"rt":1949,"stimulus":"images/Car/With_Backgrounds/difficulty6_image9.png","response":2,"category":"Car","background_difficulty":"6","image_path":"images/Car/With_Backgrounds/difficulty6_image9.png","trial_type":"image-button-response","trial_index":5,"time_elapsed":26242,"internal_node_id":"0.0-2.0-0.3"},{"rt":1516,"stimulus":"images/Dog/With_Backgrounds/difficulty6_image1.png","response":4,"category":"Dog","background_difficulty":"6","image_path":"images/Dog/With_Backgrounds/difficulty6_image1.png","trial_type":"image-button-response","trial_index":6,"time_elapsed":27760,"internal_node_id":"0.0-2.0-0.4"},{"rt":1763,"stimulus":"images/Tree/With_Backgrounds/difficulty3_image0.png","response":6,"category":"Tree","background_difficulty":"3","image_path":"images/Tree/With_Backgrounds/difficulty3_image0.png","trial_type":"image-button-response","trial_index":7,"time_elapsed":29524,"internal_node_id":"0.0-2.0-0.5"},{"rt":1659,"stimulus":"images/Broccoli/With_Backgrounds/difficulty5_image1.png","response":1,"category":"Broccoli","background_difficulty":"5","image_path":"images/Broccoli/With_Backgrounds/difficulty5_image1.png","trial_type":"image-button-response","trial_index":8,"time_elapsed":31185,"internal_node_id":"0.0-2.0-0.6"},{"rt":3260,"stimulus":"images/Other/With_Backgrounds/difficulty1_image7.png","response":7,"category":"Other","background_difficulty":"1","image_path":"images/Other/With_Backgrounds/difficulty1_image7.png","trial_type":"image-button-response","trial_index":9,"time_elapsed":34446,"internal_node_id":"0.0-2.0-0.7"},{"rt":1919,"stimulus":"images/Car/With_Backgrounds/difficulty3_image7.png","response":2,"category":"Car","background_difficulty":"3","image_path":"images/Car/With_Backgrounds/difficulty3_image7.png","trial_type":"image-button-response","trial_index":10,"time_elapsed":36367,"internal_node_id":"0.0-2.0-0.8"},{"rt":1452,"stimulus":"images/Human/With_Backgrounds/difficulty5_image5.png","response":5,"category":"Human","background_difficulty":"5","image_path":"images/Human/With_Backgrounds/difficulty5_image5.png","trial_type":"image-button-response","trial_index":11,"time_elapsed":37820,"internal_node_id":"0.0-2.0-0.9"},{"rt":1740,"stimulus":"images/Cat/With_Backgrounds/difficulty3_image3.png","response":3,"category":"Cat","background_difficulty":"3","image_path":"images/Cat/With_Backgrounds/difficulty3_image3.png","trial_type":"image-button-response","trial_index":12,"time_elapsed":39562,"internal_node_id":"0.0-2.0-0.10"},{"rt":1412,"stimulus":"images/Dog/With_Backgrounds/difficulty3_image3.png","response":4,"category":"Dog","background_difficulty":"3","image_path":"images/Dog/With_Backgrounds/difficulty3_image3.png","trial_type":"image-button-response","trial_index":13,"time_elapsed":40975,"internal_node_id":"0.0-2.0-0.11"},{"rt":2354,"stimulus":"images/Other/With_Backgrounds/difficulty7_image0.png","response":7,"category":"Other","background_difficulty":"7","image_path":"images/Other/With_Backgrounds/difficulty7_image0.png","trial_type":"image-button-response","trial_index":14,"time_elapsed":43330,"internal_node_id":"0.0-2.0-0.12"},{"rt":1599,"stimulus":"images/Cat/With_Backgrounds/difficulty2_image5.png","response":3,"category":"Cat","background_difficulty":"2","image_path":"images/Cat/With_Backgrounds/difficulty2_image5.png","trial_type":"image-button-response","trial_index":15,"time_elapsed":44931,"internal_node_id":"0.0-2.0-0.13"},{"rt":1735,"stimulus":"images/Broccoli/With_Backgrounds/difficulty2_image9.png","response":1,"category":"Broccoli","background_difficulty":"2","image_path":"images/Broccoli/With_Backgrounds/difficulty2_image9.png","trial_type":"image-button-response","trial_index":16,"time_elapsed":46667,"internal_node_id":"0.0-2.0-0.14"},{"rt":2112,"stimulus":"images/Other/With_Backgrounds/difficulty0_image8.png","response":7,"category":"Other","background_difficulty":"0","image_path":"images/Other/With_Backgrounds/difficulty0_image8.png","trial_type":"image-button-response","trial_index":17,"time_elapsed":48780,"internal_node_id":"0.0-2.0-0.15"},{"rt":1520,"stimulus":"images/Boat/With_Backgrounds/difficulty7_image1.png","response":0,"category":"Boat","background_difficulty":"7","image_path":"images/Boat/With_Backgrounds/difficulty7_image1.png","trial_type":"image-button-response","trial_index":18,"time_elapsed":50301,"internal_node_id":"0.0-2.0-0.16"},{"rt":1703,"stimulus":"images/Car/With_Backgrounds/difficulty8_image4.png","response":2,"category":"Car","background_difficulty":"8","image_path":"images/Car/With_Backgrounds/difficulty8_image4.png","trial_type":"image-button-response","trial_index":19,"time_elapsed":52006,"internal_node_id":"0.0-2.0-0.17"},{"rt":1119,"stimulus":"images/Cat/With_Backgrounds/difficulty8_image0.png","response":3,"category":"Cat","background_difficulty":"8","image_path":"images/Cat/With_Backgrounds/difficulty8_image0.png","trial_type":"image-button-response","trial_index":20,"time_elapsed":53126,"internal_node_id":"0.0-2.0-0.18"},{"rt":1084,"stimulus":"images/Car/With_Backgrounds/difficulty2_image3.png","response":2,"category":"Car","background_difficulty":"2","image_path":"images/Car/With_Backgrounds/difficulty2_image3.png","trial_type":"image-button-response","trial_index":21,"time_elapsed":54212,"internal_node_id":"0.0-2.0-0.19"},{"rt":1221,"stimulus":"images/Boat/With_Backgrounds/difficulty6_image0.png","response":0,"category":"Boat","background_difficulty":"6","image_path":"images/Boat/With_Backgrounds/difficulty6_image0.png","trial_type":"image-button-response","trial_index":22,"time_elapsed":55434,"internal_node_id":"0.0-2.0-0.20"},{"rt":1020,"stimulus":"images/Boat/With_Backgrounds/difficulty4_image8.png","response":0,"category":"Boat","background_difficulty":"4","image_path":"images/Boat/With_Backgrounds/difficulty4_image8.png","trial_type":"image-button-response","trial_index":23,"time_elapsed":56456,"internal_node_id":"0.0-2.0-0.21"},{"rt":969,"stimulus":"images/Boat/With_Backgrounds/difficulty0_image9.png","response":0,"category":"Boat","background_difficulty":"0","image_path":"images/Boat/With_Backgrounds/difficulty0_image9.png","trial_type":"image-button-response","trial_index":24,"time_elapsed":57427,"internal_node_id":"0.0-2.0-0.22"},{"rt":951,"stimulus":"images/Boat/With_Backgrounds/difficulty1_image5.png","response":0,"category":"Boat","background_difficulty":"1","image_path":"images/Boat/With_Backgrounds/difficulty1_image5.png","trial_type":"image-button-response","trial_index":25,"time_elapsed":58379,"internal_node_id":"0.0-2.0-0.23"},{"rt":928,"stimulus":"images/Boat/With_Backgrounds/difficulty2_image3.png","response":0,"category":"Boat","background_difficulty":"2","image_path":"images/Boat/With_Backgrounds/difficulty2_image3.png","trial_type":"image-button-response","trial_index":26,"time_elapsed":59309,"internal_node_id":"0.0-2.0-0.24"},{"rt":1298,"stimulus":"images/Human/With_Backgrounds/difficulty2_image2.png","response":5,"category":"Human","background_difficulty":"2","image_path":"images/Human/With_Backgrounds/difficulty2_image2.png","trial_type":"image-button-response","trial_index":27,"time_elapsed":60608,"internal_node_id":"0.0-2.0-0.25"},{"rt":2008,"stimulus":"images/Other/With_Backgrounds/difficulty8_image1.png","response":7,"category":"Other","background_difficulty":"8","image_path":"images/Other/With_Backgrounds/difficulty8_image1.png","trial_type":"image-button-response","trial_index":28,"time_elapsed":62617,"internal_node_id":"0.0-2.0-0.26"},{"rt":1485,"stimulus":"images/Tree/With_Backgrounds/difficulty0_image5.png","response":6,"category":"Tree","background_difficulty":"0","image_path":"images/Tree/With_Backgrounds/difficulty0_image5.png","trial_type":"image-button-response","trial_index":29,"time_elapsed":64103,"internal_node_id":"0.0-2.0-0.27"},{"rt":1320,"stimulus":"images/Cat/With_Backgrounds/difficulty1_image6.png","response":3,"category":"Cat","background_difficulty":"1","image_path":"images/Cat/With_Backgrounds/difficulty1_image6.png","trial_type":"image-button-response","trial_index":30,"time_elapsed":65425,"internal_node_id":"0.0-2.0-0.28"},{"rt":1090,"stimulus":"images/Human/With_Backgrounds/difficulty1_image1.png","response":5,"category":"Human","background_difficulty":"1","image_path":"images/Human/With_Backgrounds/difficulty1_image1.png","trial_type":"image-button-response","trial_index":31,"time_elapsed":66516,"internal_node_id":"0.0-2.0-0.29"},{"rt":1042,"stimulus":"images/Human/With_Backgrounds/difficulty0_image9.png","response":5,"category":"Human","background_difficulty":"0","image_path":"images/Human/With_Backgrounds/difficulty0_image9.png","trial_type":"image-button-response","trial_index":32,"time_elapsed":67559,"internal_node_id":"0.0-2.0-0.30"},{"rt":1307,"stimulus":"images/Dog/With_Backgrounds/difficulty4_image9.png","response":4,"category":"Dog","background_difficulty":"4","image_path":"images/Dog/With_Backgrounds/difficulty4_image9.png","trial_type":"image-button-response","trial_index":33,"time_elapsed":68868,"internal_node_id":"0.0-2.0-0.31"},{"rt":1454,"stimulus":"images/Car/With_Backgrounds/difficulty1_image8.png","response":2,"category":"Car","background_difficulty":"1","image_path":"images/Car/With_Backgrounds/difficulty1_image8.png","trial_type":"image-button-response","trial_index":34,"time_elapsed":70323,"internal_node_id":"0.0-2.0-0.32"},{"rt":1126,"stimulus":"images/Human/With_Backgrounds/difficulty8_image3.png","response":5,"category":"Human","background_difficulty":"8","image_path":"images/Human/With_Backgrounds/difficulty8_image3.png","trial_type":"image-button-response","trial_index":35,"time_elapsed":71450,"internal_node_id":"0.0-2.0-0.33"},{"rt":1431,"stimulus":"images/Broccoli/With_Backgrounds/difficulty0_image0.png","response":1,"category":"Broccoli","background_difficulty":"0","image_path":"images/Broccoli/With_Backgrounds/difficulty0_image0.png","trial_type":"image-button-response","trial_index":36,"time_elapsed":72883,"internal_node_id":"0.0-2.0-0.34"},{"rt":1393,"stimulus":"images/Other/With_Backgrounds/difficulty3_image6.png","response":7,"category":"Other","background_difficulty":"3","image_path":"images/Other/With_Backgrounds/difficulty3_image6.png","trial_type":"image-button-response","trial_index":37,"time_elapsed":74278,"internal_node_id":"0.0-2.0-0.35"},{"rt":1638,"stimulus":"images/Car/With_Backgrounds/difficulty5_image0.png","response":2,"category":"Car","background_difficulty":"5","image_path":"images/Car/With_Backgrounds/difficulty5_image0.png","trial_type":"image-button-response","trial_index":38,"time_elapsed":75918,"internal_node_id":"0.0-2.0-0.36"},{"rt":1390,"stimulus":"images/Boat/With_Backgrounds/difficulty3_image2.png","response":0,"category":"Boat","background_difficulty":"3","image_path":"images/Boat/With_Backgrounds/difficulty3_image2.png","trial_type":"image-button-response","trial_index":39,"time_elapsed":77309,"internal_node_id":"0.0-2.0-0.37"},{"rt":1003,"stimulus":"images/Boat/With_Backgrounds/difficulty8_image4.png","response":0,"category":"Boat","background_difficulty":"8","image_path":"images/Boat/With_Backgrounds/difficulty8_image4.png","trial_type":"image-button-response","trial_index":40,"time_elapsed":78313,"internal_node_id":"0.0-2.0-0.38"},{"rt":1295,"stimulus":"images/Broccoli/With_Backgrounds/difficulty1_image3.png","response":1,"category":"Broccoli","background_difficulty":"1","image_path":"images/Broccoli/With_Backgrounds/difficulty1_image3.png","trial_type":"image-button-response","trial_index":41,"time_elapsed":79610,"internal_node_id":"0.0-2.0-0.39"},{"rt":1251,"stimulus":"images/Tree/With_Backgrounds/difficulty1_image9.png","response":6,"category":"Tree","background_difficulty":"1","image_path":"images/Tree/With_Backgrounds/difficulty1_image9.png","trial_type":"image-button-response","trial_index":42,"time_elapsed":80861,"internal_node_id":"0.0-2.0-0.40"},{"rt":1518,"stimulus":"images/Other/With_Backgrounds/difficulty2_image3.png","response":7,"category":"Other","background_difficulty":"2","image_path":"images/Other/With_Backgrounds/difficulty2_image3.png","trial_type":"image-button-response","trial_index":43,"time_elapsed":82381,"internal_node_id":"0.0-2.0-0.41"},{"rt":977,"stimulus":"images/Human/With_Backgrounds/difficulty6_image4.png","response":5,"category":"Human","background_difficulty":"6","image_path":"images/Human/With_Backgrounds/difficulty6_image4.png","trial_type":"image-button-response","trial_index":44,"time_elapsed":83359,"internal_node_id":"0.0-2.0-0.42"},{"rt":1581,"stimulus":"images/Other/With_Backgrounds/difficulty4_image9.png","response":7,"category":"Other","background_difficulty":"4","image_path":"images/Other/With_Backgrounds/difficulty4_image9.png","trial_type":"image-button-response","trial_index":45,"time_elapsed":84941,"internal_node_id":"0.0-2.0-0.43"},{"rt":1579,"stimulus":"images/Cat/With_Backgrounds/difficulty4_image1.png","response":3,"category":"Cat","background_difficulty":"4","image_path":"images/Cat/With_Backgrounds/difficulty4_image1.png","trial_type":"image-button-response","trial_index":46,"time_elapsed":86521,"internal_node_id":"0.0-2.0-0.44"},{"rt":1657,"stimulus":"images/Broccoli/With_Backgrounds/difficulty4_image5.png","response":1,"category":"Broccoli","background_difficulty":"4","image_path":"images/Broccoli/With_Backgrounds/difficulty4_image5.png","trial_type":"image-button-response","trial_index":47,"time_elapsed":88179,"internal_node_id":"0.0-2.0-0.45"},{"rt":1329,"stimulus":"images/Tree/With_Backgrounds/difficulty2_image4.png","response":6,"category":"Tree","background_difficulty":"2","image_path":"images/Tree/With_Backgrounds/difficulty2_image4.png","trial_type":"image-button-response","trial_index":48,"time_elapsed":89509,"internal_node_id":"0.0-2.0-0.46"},{"rt":1441,"stimulus":"images/Dog/With_Backgrounds/difficulty8_image5.png","response":4,"category":"Dog","background_difficulty":"8","image_path":"images/Dog/With_Backgrounds/difficulty8_image5.png","trial_type":"image-button-response","trial_index":49,"time_elapsed":90952,"internal_node_id":"0.0-2.0-0.47"},{"rt":1154,"stimulus":"images/Cat/With_Backgrounds/difficulty0_image2.png","response":3,"category":"Cat","background_difficulty":"0","image_path":"images/Cat/With_Backgrounds/difficulty0_image2.png","trial_type":"image-button-response","trial_index":50,"time_elapsed":92107,"internal_node_id":"0.0-2.0-0.48"},{"rt":1365,"stimulus":"images/Tree/With_Backgrounds/difficulty5_image3.png","response":6,"category":"Tree","background_difficulty":"5","image_path":"images/Tree/With_Backgrounds/difficulty5_image3.png","trial_type":"image-button-response","trial_index":51,"time_elapsed":93473,"internal_node_id":"0.0-2.0-0.49"},{"rt":1403,"stimulus":"images/Cat/With_Backgrounds/difficulty5_image8.png","response":3,"category":"Cat","background_difficulty":"5","image_path":"images/Cat/With_Backgrounds/difficulty5_image8.png","trial_type":"image-button-response","trial_index":52,"time_elapsed":94877,"internal_node_id":"0.0-2.0-0.50"},{"rt":1256,"stimulus":"images/Dog/With_Backgrounds/difficulty5_image2.png","response":4,"category":"Dog","background_difficulty":"5","image_path":"images/Dog/With_Backgrounds/difficulty5_image2.png","trial_type":"image-button-response","trial_index":53,"time_elapsed":96135,"internal_node_id":"0.0-2.0-0.51"},{"rt":905,"stimulus":"images/Dog/With_Backgrounds/difficulty7_image6.png","response":4,"category":"Dog","background_difficulty":"7","image_path":"images/Dog/With_Backgrounds/difficulty7_image6.png","trial_type":"image-button-response","trial_index":54,"time_elapsed":97040,"internal_node_id":"0.0-2.0-0.52"},{"rt":1235,"stimulus":"images/Other/With_Backgrounds/difficulty5_image4.png","response":7,"category":"Other","background_difficulty":"5","image_path":"images/Other/With_Backgrounds/difficulty5_image4.png","trial_type":"image-button-response","trial_index":55,"time_elapsed":98277,"internal_node_id":"0.0-2.0-0.53"},{"rt":1589,"stimulus":"images/Broccoli/With_Backgrounds/difficulty7_image8.png","response":1,"category":"Broccoli","background_difficulty":"7","image_path":"images/Broccoli/With_Backgrounds/difficulty7_image8.png","trial_type":"image-button-response","trial_index":56,"time_elapsed":99867,"internal_node_id":"0.0-2.0-0.54"},{"rt":1837,"stimulus":"images/Human/With_Backgrounds/difficulty4_image8.png","response":5,"category":"Human","background_difficulty":"4","image_path":"images/Human/With_Backgrounds/difficulty4_image8.png","trial_type":"image-button-response","trial_index":57,"time_elapsed":101706,"internal_node_id":"0.0-2.0-0.55"},{"rt":1262,"stimulus":"images/Dog/With_Backgrounds/difficulty0_image0.png","response":4,"category":"Dog","background_difficulty":"0","image_path":"images/Dog/With_Backgrounds/difficulty0_image0.png","trial_type":"image-button-response","trial_index":58,"time_elapsed":102969,"internal_node_id":"0.0-2.0-0.56"},{"rt":1597,"stimulus":"images/Car/With_Backgrounds/difficulty7_image5.png","response":2,"category":"Car","background_difficulty":"7","image_path":"images/Car/With_Backgrounds/difficulty7_image5.png","trial_type":"image-button-response","trial_index":59,"time_elapsed":104567,"internal_node_id":"0.0-2.0-0.57"},{"rt":1249,"stimulus":"images/Dog/With_Backgrounds/difficulty1_image8.png","response":4,"category":"Dog","background_difficulty":"1","image_path":"images/Dog/With_Backgrounds/difficulty1_image8.png","trial_type":"image-button-response","trial_index":60,"time_elapsed":105817,"internal_node_id":"0.0-2.0-0.58"},{"rt":1661,"stimulus":"images/Boat/With_Backgrounds/difficulty5_image7.png","response":0,"category":"Boat","background_difficulty":"5","image_path":"images/Boat/With_Backgrounds/difficulty5_image7.png","trial_type":"image-button-response","trial_index":61,"time_elapsed":107479,"internal_node_id":"0.0-2.0-0.59"},{"rt":1273,"stimulus":"images/Tree/With_Backgrounds/difficulty6_image7.png","response":6,"category":"Tree","background_difficulty":"6","image_path":"images/Tree/With_Backgrounds/difficulty6_image7.png","trial_type":"image-button-response","trial_index":62,"time_elapsed":108753,"internal_node_id":"0.0-2.0-0.60"},{"rt":1271,"stimulus":"images/Cat/With_Backgrounds/difficulty6_image7.png","response":3,"category":"Cat","background_difficulty":"6","image_path":"images/Cat/With_Backgrounds/difficulty6_image7.png","trial_type":"image-button-response","trial_index":63,"time_elapsed":110025,"internal_node_id":"0.0-2.0-0.61"},{"rt":1369,"stimulus":"images/Other/With_Backgrounds/difficulty6_image2.png","response":7,"category":"Other","background_difficulty":"6","image_path":"images/Other/With_Backgrounds/difficulty6_image2.png","trial_type":"image-button-response","trial_index":64,"time_elapsed":111395,"internal_node_id":"0.0-2.0-0.62"},{"rt":1366,"stimulus":"images/Tree/With_Backgrounds/difficulty8_image6.png","response":6,"category":"Tree","background_difficulty":"8","image_path":"images/Tree/With_Backgrounds/difficulty8_image6.png","trial_type":"image-button-response","trial_index":65,"time_elapsed":112762,"internal_node_id":"0.0-2.0-0.63"},{"rt":941,"stimulus":"images/Tree/With_Backgrounds/difficulty7_image2.png","response":6,"category":"Tree","background_difficulty":"7","image_path":"images/Tree/With_Backgrounds/difficulty7_image2.png","trial_type":"image-button-response","trial_index":66,"time_elapsed":113705,"internal_node_id":"0.0-2.0-0.64"},{"rt":1051,"stimulus":"images/Car/With_Backgrounds/difficulty0_image2.png","response":2,"category":"Car","background_difficulty":"0","image_path":"images/Car/With_Backgrounds/difficulty0_image2.png","trial_type":"image-button-response","trial_index":67,"time_elapsed":114757,"internal_node_id":"0.0-2.0-0.65"},{"rt":1092,"stimulus":"images/Broccoli/With_Backgrounds/difficulty3_image4.png","response":1,"category":"Broccoli","background_difficulty":"3","image_path":"images/Broccoli/With_Backgrounds/difficulty3_image4.png","trial_type":"image-button-response","trial_index":68,"time_elapsed":115849,"internal_node_id":"0.0-2.0-0.66"},{"rt":1098,"stimulus":"images/Cat/With_Backgrounds/difficulty7_image4.png","response":3,"category":"Cat","background_difficulty":"7","image_path":"images/Cat/With_Backgrounds/difficulty7_image4.png","trial_type":"image-button-response","trial_index":69,"time_elapsed":116949,"internal_node_id":"0.0-2.0-0.67"},{"rt":1669,"stimulus":"images/Broccoli/With_Backgrounds/difficulty6_image7.png","response":1,"category":"Broccoli","background_difficulty":"6","image_path":"images/Broccoli/With_Backgrounds/difficulty6_image7.png","trial_type":"image-button-response","trial_index":70,"time_elapsed":118619,"internal_node_id":"0.0-2.0-0.68"},{"rt":893,"stimulus":"images/Broccoli/With_Backgrounds/difficulty8_image2.png","response":1,"category":"Broccoli","background_difficulty":"8","image_path":"images/Broccoli/With_Backgrounds/difficulty8_image2.png","trial_type":"image-button-response","trial_index":71,"time_elapsed":119513,"internal_node_id":"0.0-2.0-0.69"},{"rt":1178,"stimulus":"images/Human/With_Backgrounds/difficulty7_image6.png","response":5,"category":"Human","background_difficulty":"7","image_path":"images/Human/With_Backgrounds/difficulty7_image6.png","trial_type":"image-button-response","trial_index":72,"time_elapsed":120693,"internal_node_id":"0.0-2.0-0.70"},{"rt":999,"stimulus":"images/Dog/With_Backgrounds/difficulty2_image7.png","response":4,"category":"Dog","background_difficulty":"2","image_path":"images/Dog/With_Backgrounds/difficulty2_image7.png","trial_type":"image-button-response","trial_index":73,"time_elapsed":121694,"internal_node_id":"0.0-2.0-0.71"},{"rt":2229,"stimulus":["<h2>Press the button below to end experiment.</h2><p>Thank you for participating!</p>"],"response":0,"trial_type":"html-button-response","trial_index":74,"time_elapsed":123924,"internal_node_id":"0.0-3.0"}]