[{"success":true,"timeout":false,"failed_images":[],"failed_audio":[],"failed_video":[],"trial_type":"preload","trial_index":0,"time_elapsed":4998,"internal_node_id":"0.0-0.0"},{"rt":12927,"stimulus":["<h2>Noisy background image classification</h2><p>In this experiment you will briefly see images on top of colored squares of various sizes.</p><p>Your task is to report what each image is, selecting \"None of the Above\" if none of the given options are correct.</p> <p>The possible options are <strong>Boat</strong>, <strong>Broccoli</strong>, <strong>Car</strong>, <strong>Cat</strong>, <strong>Dog</strong>, <strong>Human</strong>, <strong>Tree</strong>, and <strong>None of the Above</strong>"],"response":0,"trial_type":"html-button-response","trial_index":1,"time_elapsed":17930,"internal_node_id":"0.0-1.0"},{"rt":4694,"stimulus":"images/Car/With_Backgrounds/difficulty8_image2.png","response":2,"category":"Car","background_difficulty":"8","image_path":"images/Car/With_Backgrounds/difficulty8_image2.png","trial_type":"image-button-response","trial_index":2,"time_elapsed":22639,"internal_node_id":"0.0-2.0-0.0"},{"rt":2333,"stimulus":"images/Dog/With_Backgrounds/difficulty0_image7.png","response":4,"category":"Dog","background_difficulty":"0","image_path":"images/Dog/With_Backgrounds/difficulty0_image7.png","trial_type":"image-button-response","trial_index":3,"time_elapsed":24978,"internal_node_id":"0.0-2.0-0.1"},{"rt":2719,"stimulus":"images/Tree/With_Backgrounds/difficulty8_image3.png","response":6,"category":"Tree","background_difficulty":"8","image_path":"images/Tree/With_Backgrounds/difficulty8_image3.png","trial_type":"image-button-response","trial_index":4,"time_elapsed":27705,"internal_node_id":"0.0-2.0-0.2"},{"rt":2334,"stimulus":"images/Broccoli/With_Backgrounds/difficulty2_image9.png","response":1,"category":"Broccoli","background_difficulty":"2","image_path":"images/Broccoli/With_Backgrounds/difficulty2_image9.png","trial_type":"image-button-response","trial_index":5,"time_elapsed":30045,"internal_node_id":"0.0-2.0-0.3"},{"rt":2047,"stimulus":"images/Car/With_Backgrounds/difficulty7_image4.png","response":2,"category":"Car","background_difficulty":"7","image_path":"images/Car/With_Backgrounds/difficulty7_image4.png","trial_type":"image-button-response","trial_index":6,"time_elapsed":32100,"internal_node_id":"0.0-2.0-0.4"},{"rt":2585,"stimulus":"images/Human/With_Backgrounds/difficulty2_image1.png","response":7,"category":"Human","background_difficulty":"2","image_path":"images/Human/With_Backgrounds/difficulty2_image1.png","trial_type":"image-button-response","trial_index":7,"time_elapsed":34694,"internal_node_id":"0.0-2.0-0.5"},{"rt":2562,"stimulus":"images/Human/With_Backgrounds/difficulty4_image4.png","response":5,"category":"Human","background_difficulty":"4","image_path":"images/Human/With_Backgrounds/difficulty4_image4.png","trial_type":"image-button-response","trial_index":8,"time_elapsed":37265,"internal_node_id":"0.0-2.0-0.6"},{"rt":2219,"stimulus":"images/Cat/With_Backgrounds/difficulty0_image4.png","response":3,"category":"Cat","background_difficulty":"0","image_path":"images/Cat/With_Backgrounds/difficulty0_image4.png","trial_type":"image-button-response","trial_index":9,"time_elapsed":39490,"internal_node_id":"0.0-2.0-0.7"},{"rt":1865,"stimulus":"images/Tree/With_Backgrounds/difficulty3_image0.png","response":6,"category":"Tree","background_difficulty":"3","image_path":"images/Tree/With_Backgrounds/difficulty3_image0.png","trial_type":"image-button-response","trial_index":10,"time_elapsed":41362,"internal_node_id":"0.0-2.0-0.8"},{"rt":2347,"stimulus":"images/Car/With_Backgrounds/difficulty1_image1.png","response":2,"category":"Car","background_difficulty":"1","image_path":"images/Car/With_Backgrounds/difficulty1_image1.png","trial_type":"image-button-response","trial_index":11,"time_elapsed":43719,"internal_node_id":"0.0-2.0-0.9"},{"rt":2399,"stimulus":"images/Broccoli/With_Backgrounds/difficulty3_image6.png","response":1,"category":"Broccoli","background_difficulty":"3","image_path":"images/Broccoli/With_Backgrounds/difficulty3_image6.png","trial_type":"image-button-response","trial_index":12,"time_elapsed":46125,"internal_node_id":"0.0-2.0-0.10"},{"rt":2304,"stimulus":"images/Boat/With_Backgrounds/difficulty5_image8.png","response":0,"category":"Boat","background_difficulty":"5","image_path":"images/Boat/With_Backgrounds/difficulty5_image8.png","trial_type":"image-button-response","trial_index":13,"time_elapsed":48434,"internal_node_id":"0.0-2.0-0.11"},{"rt":2041,"stimulus":"images/Cat/With_Backgrounds/difficulty4_image6.png","response":3,"category":"Cat","background_difficulty":"4","image_path":"images/Cat/With_Backgrounds/difficulty4_image6.png","trial_type":"image-button-response","trial_index":14,"time_elapsed":50486,"internal_node_id":"0.0-2.0-0.12"},{"rt":1917,"stimulus":"images/Tree/With_Backgrounds/difficulty7_image8.png","response":6,"category":"Tree","background_difficulty":"7","image_path":"images/Tree/With_Backgrounds/difficulty7_image8.png","trial_type":"image-button-response","trial_index":15,"time_elapsed":52411,"internal_node_id":"0.0-2.0-0.13"},{"rt":1610,"stimulus":"images/Tree/With_Backgrounds/difficulty0_image4.png","response":6,"category":"Tree","background_difficulty":"0","image_path":"images/Tree/With_Backgrounds/difficulty0_image4.png","trial_type":"image-button-response","trial_index":16,"time_elapsed":54030,"internal_node_id":"0.0-2.0-0.14"},{"rt":2130,"stimulus":"images/Cat/With_Backgrounds/difficulty8_image0.png","response":3,"category":"Cat","background_difficulty":"8","image_path":"images/Cat/With_Backgrounds/difficulty8_image0.png","trial_type":"image-button-response","trial_index":17,"time_elapsed":56169,"internal_node_id":"0.0-2.0-0.15"},{"rt":1634,"stimulus":"images/Dog/With_Backgrounds/difficulty6_image8.png","response":4,"category":"Dog","background_difficulty":"6","image_path":"images/Dog/With_Backgrounds/difficulty6_image8.png","trial_type":"image-button-response","trial_index":18,"time_elapsed":57810,"internal_node_id":"0.0-2.0-0.16"},{"rt":4488,"stimulus":"images/Boat/With_Backgrounds/difficulty3_image2.png","response":4,"category":"Boat","background_difficulty":"3","image_path":"images/Boat/With_Backgrounds/difficulty3_image2.png","trial_type":"image-button-response","trial_index":19,"time_elapsed":62308,"internal_node_id":"0.0-2.0-0.17"},{"rt":2446,"stimulus":"images/Boat/With_Backgrounds/difficulty6_image0.png","response":0,"category":"Boat","background_difficulty":"6","image_path":"images/Boat/With_Backgrounds/difficulty6_image0.png","trial_type":"image-button-response","trial_index":20,"time_elapsed":64763,"internal_node_id":"0.0-2.0-0.18"},{"rt":2118,"stimulus":"images/Dog/With_Backgrounds/difficulty7_image2.png","response":4,"category":"Dog","background_difficulty":"7","image_path":"images/Dog/With_Backgrounds/difficulty7_image2.png","trial_type":"image-button-response","trial_index":21,"time_elapsed":66888,"internal_node_id":"0.0-2.0-0.19"},{"rt":2363,"stimulus":"images/Other/With_Backgrounds/difficulty0_image8.png","response":7,"category":"Other","background_difficulty":"0","image_path":"images/Other/With_Backgrounds/difficulty0_image8.png","trial_type":"image-button-response","trial_index":22,"time_elapsed":69260,"internal_node_id":"0.0-2.0-0.20"},{"rt":2085,"stimulus":"images/Broccoli/With_Backgrounds/difficulty5_image3.png","response":1,"category":"Broccoli","background_difficulty":"5","image_path":"images/Broccoli/With_Backgrounds/difficulty5_image3.png","trial_type":"image-button-response","trial_index":23,"time_elapsed":71351,"internal_node_id":"0.0-2.0-0.21"},{"rt":1945,"stimulus":"images/Tree/With_Backgrounds/difficulty6_image9.png","response":6,"category":"Tree","background_difficulty":"6","image_path":"images/Tree/With_Backgrounds/difficulty6_image9.png","trial_type":"image-button-response","trial_index":24,"time_elapsed":73307,"internal_node_id":"0.0-2.0-0.22"},{"rt":1476,"stimulus":"images/Tree/With_Backgrounds/difficulty2_image7.png","response":6,"category":"Tree","background_difficulty":"2","image_path":"images/Tree/With_Backgrounds/difficulty2_image7.png","trial_type":"image-button-response","trial_index":25,"time_elapsed":74795,"internal_node_id":"0.0-2.0-0.23"},{"rt":2331,"stimulus":"images/Cat/With_Backgrounds/difficulty2_image1.png","response":3,"category":"Cat","background_difficulty":"2","image_path":"images/Cat/With_Backgrounds/difficulty2_image1.png","trial_type":"image-button-response","trial_index":26,"time_elapsed":77136,"internal_node_id":"0.0-2.0-0.24"},{"rt":1893,"stimulus":"images/Other/With_Backgrounds/difficulty7_image7.png","response":7,"category":"Other","background_difficulty":"7","image_path":"images/Other/With_Backgrounds/difficulty7_image7.png","trial_type":"image-button-response","trial_index":27,"time_elapsed":79042,"internal_node_id":"0.0-2.0-0.25"},{"rt":1773,"stimulus":"images/Dog/With_Backgrounds/difficulty8_image3.png","response":4,"category":"Dog","background_difficulty":"8","image_path":"images/Dog/With_Backgrounds/difficulty8_image3.png","trial_type":"image-button-response","trial_index":28,"time_elapsed":80827,"internal_node_id":"0.0-2.0-0.26"},{"rt":2236,"stimulus":"images/Cat/With_Backgrounds/difficulty6_image5.png","response":3,"category":"Cat","background_difficulty":"6","image_path":"images/Cat/With_Backgrounds/difficulty6_image5.png","trial_type":"image-button-response","trial_index":29,"time_elapsed":83068,"internal_node_id":"0.0-2.0-0.27"},{"rt":1479,"stimulus":"images/Cat/With_Backgrounds/difficulty1_image2.png","response":3,"category":"Cat","background_difficulty":"1","image_path":"images/Cat/With_Backgrounds/difficulty1_image2.png","trial_type":"image-button-response","trial_index":30,"time_elapsed":84557,"internal_node_id":"0.0-2.0-0.28"},{"rt":1828,"stimulus":"images/Other/With_Backgrounds/difficulty5_image0.png","response":7,"category":"Other","background_difficulty":"5","image_path":"images/Other/With_Backgrounds/difficulty5_image0.png","trial_type":"image-button-response","trial_index":31,"time_elapsed":86395,"internal_node_id":"0.0-2.0-0.29"},{"rt":2914,"stimulus":"images/Human/With_Backgrounds/difficulty6_image3.png","response":5,"category":"Human","background_difficulty":"6","image_path":"images/Human/With_Backgrounds/difficulty6_image3.png","trial_type":"image-button-response","trial_index":32,"time_elapsed":89321,"internal_node_id":"0.0-2.0-0.30"},{"rt":2181,"stimulus":"images/Car/With_Backgrounds/difficulty4_image3.png","response":2,"category":"Car","background_difficulty":"4","image_path":"images/Car/With_Backgrounds/difficulty4_image3.png","trial_type":"image-button-response","trial_index":33,"time_elapsed":91512,"internal_node_id":"0.0-2.0-0.31"},{"rt":1894,"stimulus":"images/Other/With_Backgrounds/difficulty3_image1.png","response":7,"category":"Other","background_difficulty":"3","image_path":"images/Other/With_Backgrounds/difficulty3_image1.png","trial_type":"image-button-response","trial_index":34,"time_elapsed":93417,"internal_node_id":"0.0-2.0-0.32"},{"rt":1628,"stimulus":"images/Tree/With_Backgrounds/difficulty4_image2.png","response":6,"category":"Tree","background_difficulty":"4","image_path":"images/Tree/With_Backgrounds/difficulty4_image2.png","trial_type":"image-button-response","trial_index":35,"time_elapsed":95055,"internal_node_id":"0.0-2.0-0.33"},{"rt":2880,"stimulus":"images/Other/With_Backgrounds/difficulty1_image4.png","response":7,"category":"Other","background_difficulty":"1","image_path":"images/Other/With_Backgrounds/difficulty1_image4.png","trial_type":"image-button-response","trial_index":36,"time_elapsed":97947,"internal_node_id":"0.0-2.0-0.34"},{"rt":2010,"stimulus":"images/Cat/With_Backgrounds/difficulty7_image3.png","response":3,"category":"Cat","background_difficulty":"7","image_path":"images/Cat/With_Backgrounds/difficulty7_image3.png","trial_type":"image-button-response","trial_index":37,"time_elapsed":99969,"internal_node_id":"0.0-2.0-0.35"},{"rt":1981,"stimulus":"images/Broccoli/With_Backgrounds/difficulty6_image0.png","response":1,"category":"Broccoli","background_difficulty":"6","image_path":"images/Broccoli/With_Backgrounds/difficulty6_image0.png","trial_type":"image-button-response","trial_index":38,"time_elapsed":101959,"internal_node_id":"0.0-2.0-0.36"},{"rt":1642,"stimulus":"images/Tree/With_Backgrounds/difficulty5_image5.png","response":6,"category":"Tree","background_difficulty":"5","image_path":"images/Tree/With_Backgrounds/difficulty5_image5.png","trial_type":"image-button-response","trial_index":39,"time_elapsed":103613,"internal_node_id":"0.0-2.0-0.37"},{"rt":1996,"stimulus":"images/Dog/With_Backgrounds/difficulty4_image5.png","response":4,"category":"Dog","background_difficulty":"4","image_path":"images/Dog/With_Backgrounds/difficulty4_image5.png","trial_type":"image-button-response","trial_index":40,"time_elapsed":105619,"internal_node_id":"0.0-2.0-0.38"},{"rt":1929,"stimulus":"images/Broccoli/With_Backgrounds/difficulty0_image8.png","response":1,"category":"Broccoli","background_difficulty":"0","image_path":"images/Broccoli/With_Backgrounds/difficulty0_image8.png","trial_type":"image-button-response","trial_index":41,"time_elapsed":107558,"internal_node_id":"0.0-2.0-0.39"},{"rt":1679,"stimulus":"images/Tree/With_Backgrounds/difficulty1_image1.png","response":6,"category":"Tree","background_difficulty":"1","image_path":"images/Tree/With_Backgrounds/difficulty1_image1.png","trial_type":"image-button-response","trial_index":42,"time_elapsed":109246,"internal_node_id":"0.0-2.0-0.40"},{"rt":2095,"stimulus":"images/Dog/With_Backgrounds/difficulty1_image9.png","response":4,"category":"Dog","background_difficulty":"1","image_path":"images/Dog/With_Backgrounds/difficulty1_image9.png","trial_type":"image-button-response","trial_index":43,"time_elapsed":111353,"internal_node_id":"0.0-2.0-0.41"},{"rt":2477,"stimulus":"images/Car/With_Backgrounds/difficulty5_image5.png","response":2,"category":"Car","background_difficulty":"5","image_path":"images/Car/With_Backgrounds/difficulty5_image5.png","trial_type":"image-button-response","trial_index":44,"time_elapsed":113841,"internal_node_id":"0.0-2.0-0.42"},{"rt":2371,"stimulus":"images/Other/With_Backgrounds/difficulty6_image3.png","response":7,"category":"Other","background_difficulty":"6","image_path":"images/Other/With_Backgrounds/difficulty6_image3.png","trial_type":"image-button-response","trial_index":45,"time_elapsed":116218,"internal_node_id":"0.0-2.0-0.43"},{"rt":1993,"stimulus":"images/Cat/With_Backgrounds/difficulty3_image7.png","response":3,"category":"Cat","background_difficulty":"3","image_path":"images/Cat/With_Backgrounds/difficulty3_image7.png","trial_type":"image-button-response","trial_index":46,"time_elapsed":118222,"internal_node_id":"0.0-2.0-0.44"},{"rt":2048,"stimulus":"images/Boat/With_Backgrounds/difficulty1_image5.png","response":0,"category":"Boat","background_difficulty":"1","image_path":"images/Boat/With_Backgrounds/difficulty1_image5.png","trial_type":"image-button-response","trial_index":47,"time_elapsed":120279,"internal_node_id":"0.0-2.0-0.45"},{"rt":1777,"stimulus":"images/Dog/With_Backgrounds/difficulty2_image1.png","response":4,"category":"Dog","background_difficulty":"2","image_path":"images/Dog/With_Backgrounds/difficulty2_image1.png","trial_type":"image-button-response","trial_index":48,"time_elapsed":122067,"internal_node_id":"0.0-2.0-0.46"},{"rt":1325,"stimulus":"images/Human/With_Backgrounds/difficulty7_image2.png","response":5,"category":"Human","background_difficulty":"7","image_path":"images/Human/With_Backgrounds/difficulty7_image2.png","trial_type":"image-button-response","trial_index":49,"time_elapsed":123404,"internal_node_id":"0.0-2.0-0.47"},{"rt":2029,"stimulus":"images/Car/With_Backgrounds/difficulty2_image9.png","response":2,"category":"Car","background_difficulty":"2","image_path":"images/Car/With_Backgrounds/difficulty2_image9.png","trial_type":"image-button-response","trial_index":50,"time_elapsed":125444,"internal_node_id":"0.0-2.0-0.48"},{"rt":1894,"stimulus":"images/Other/With_Backgrounds/difficulty8_image2.png","response":7,"category":"Other","background_difficulty":"8","image_path":"images/Other/With_Backgrounds/difficulty8_image2.png","trial_type":"image-button-response","trial_index":51,"time_elapsed":127349,"internal_node_id":"0.0-2.0-0.49"},{"rt":2242,"stimulus":"images/Broccoli/With_Backgrounds/difficulty8_image1.png","response":1,"category":"Broccoli","background_difficulty":"8","image_path":"images/Broccoli/With_Backgrounds/difficulty8_image1.png","trial_type":"image-button-response","trial_index":52,"time_elapsed":129605,"internal_node_id":"0.0-2.0-0.50"},{"rt":2661,"stimulus":"images/Boat/With_Backgrounds/difficulty8_image9.png","response":0,"category":"Boat","background_difficulty":"8","image_path":"images/Boat/With_Backgrounds/difficulty8_image9.png","trial_type":"image-button-response","trial_index":53,"time_elapsed":132280,"internal_node_id":"0.0-2.0-0.51"},{"rt":1479,"stimulus":"images/Boat/With_Backgrounds/difficulty2_image3.png","response":0,"category":"Boat","background_difficulty":"2","image_path":"images/Boat/With_Backgrounds/difficulty2_image3.png","trial_type":"image-button-response","trial_index":54,"time_elapsed":133768,"internal_node_id":"0.0-2.0-0.52"},{"rt":1794,"stimulus":"images/Broccoli/With_Backgrounds/difficulty7_image5.png","response":1,"category":"Broccoli","background_difficulty":"7","image_path":"images/Broccoli/With_Backgrounds/difficulty7_image5.png","trial_type":"image-button-response","trial_index":55,"time_elapsed":135573,"internal_node_id":"0.0-2.0-0.53"},{"rt":1778,"stimulus":"images/Car/With_Backgrounds/difficulty3_image8.png","response":2,"category":"Car","background_difficulty":"3","image_path":"images/Car/With_Backgrounds/difficulty3_image8.png","trial_type":"image-button-response","trial_index":56,"time_elapsed":137361,"internal_node_id":"0.0-2.0-0.54"},{"rt":1645,"stimulus":"images/Other/With_Backgrounds/difficulty2_image9.png","response":7,"category":"Other","background_difficulty":"2","image_path":"images/Other/With_Backgrounds/difficulty2_image9.png","trial_type":"image-button-response","trial_index":57,"time_elapsed":139016,"internal_node_id":"0.0-2.0-0.55"},{"rt":1460,"stimulus":"images/Human/With_Backgrounds/difficulty0_image6.png","response":5,"category":"Human","background_difficulty":"0","image_path":"images/Human/With_Backgrounds/difficulty0_image6.png","trial_type":"image-button-response","trial_index":58,"time_elapsed":140487,"internal_node_id":"0.0-2.0-0.56"},{"rt":2281,"stimulus":"images/Boat/With_Backgrounds/difficulty4_image1.png","response":0,"category":"Boat","background_difficulty":"4","image_path":"images/Boat/With_Backgrounds/difficulty4_image1.png","trial_type":"image-button-response","trial_index":59,"time_elapsed":142777,"internal_node_id":"0.0-2.0-0.57"},{"rt":1626,"stimulus":"images/Human/With_Backgrounds/difficulty5_image8.png","response":5,"category":"Human","background_difficulty":"5","image_path":"images/Human/With_Backgrounds/difficulty5_image8.png","trial_type":"image-button-response","trial_index":60,"time_elapsed":144415,"internal_node_id":"0.0-2.0-0.58"},{"rt":1377,"stimulus":"images/Human/With_Backgrounds/difficulty1_image0.png","response":5,"category":"Human","background_difficulty":"1","image_path":"images/Human/With_Backgrounds/difficulty1_image0.png","trial_type":"image-button-response","trial_index":61,"time_elapsed":145803,"internal_node_id":"0.0-2.0-0.59"},{"rt":1711,"stimulus":"images/Dog/With_Backgrounds/difficulty3_image4.png","response":4,"category":"Dog","background_difficulty":"3","image_path":"images/Dog/With_Backgrounds/difficulty3_image4.png","trial_type":"image-button-response","trial_index":62,"time_elapsed":147525,"internal_node_id":"0.0-2.0-0.60"},{"rt":2413,"stimulus":"images/Cat/With_Backgrounds/difficulty5_image8.png","response":3,"category":"Cat","background_difficulty":"5","image_path":"images/Cat/With_Backgrounds/difficulty5_image8.png","trial_type":"image-button-response","trial_index":63,"time_elapsed":149948,"internal_node_id":"0.0-2.0-0.61"},{"rt":1578,"stimulus":"images/Other/With_Backgrounds/difficulty4_image6.png","response":7,"category":"Other","background_difficulty":"4","image_path":"images/Other/With_Backgrounds/difficulty4_image6.png","trial_type":"image-button-response","trial_index":64,"time_elapsed":151536,"internal_node_id":"0.0-2.0-0.62"},{"rt":2782,"stimulus":"images/Car/With_Backgrounds/difficulty0_image6.png","response":2,"category":"Car","background_difficulty":"0","image_path":"images/Car/With_Backgrounds/difficulty0_image6.png","trial_type":"image-button-response","trial_index":65,"time_elapsed":154328,"internal_node_id":"0.0-2.0-0.63"},{"rt":1644,"stimulus":"images/Dog/With_Backgrounds/difficulty5_image0.png","response":4,"category":"Dog","background_difficulty":"5","image_path":"images/Dog/With_Backgrounds/difficulty5_image0.png","trial_type":"image-button-response","trial_index":66,"time_elapsed":155982,"internal_node_id":"0.0-2.0-0.64"},{"rt":1893,"stimulus":"images/Broccoli/With_Backgrounds/difficulty1_image4.png","response":1,"category":"Broccoli","background_difficulty":"1","image_path":"images/Broccoli/With_Backgrounds/difficulty1_image4.png","trial_type":"image-button-response","trial_index":67,"time_elapsed":157887,"internal_node_id":"0.0-2.0-0.65"},{"rt":1777,"stimulus":"images/Human/With_Backgrounds/difficulty3_image5.png","response":5,"category":"Human","background_difficulty":"3","image_path":"images/Human/With_Backgrounds/difficulty3_image5.png","trial_type":"image-button-response","trial_index":68,"time_elapsed":159677,"internal_node_id":"0.0-2.0-0.66"},{"rt":2265,"stimulus":"images/Boat/With_Backgrounds/difficulty0_image7.png","response":0,"category":"Boat","background_difficulty":"0","image_path":"images/Boat/With_Backgrounds/difficulty0_image7.png","trial_type":"image-button-response","trial_index":69,"time_elapsed":161950,"internal_node_id":"0.0-2.0-0.67"},{"rt":1761,"stimulus":"images/Broccoli/With_Backgrounds/difficulty4_image7.png","response":1,"category":"Broccoli","background_difficulty":"4","image_path":"images/Broccoli/With_Backgrounds/difficulty4_image7.png","trial_type":"image-button-response","trial_index":70,"time_elapsed":163721,"internal_node_id":"0.0-2.0-0.68"},{"rt":1725,"stimulus":"images/Human/With_Backgrounds/difficulty8_image7.png","response":5,"category":"Human","background_difficulty":"8","image_path":"images/Human/With_Backgrounds/difficulty8_image7.png","trial_type":"image-button-response","trial_index":71,"time_elapsed":165460,"internal_node_id":"0.0-2.0-0.69"},{"rt":1627,"stimulus":"images/Car/With_Backgrounds/difficulty6_image0.png","response":2,"category":"Car","background_difficulty":"6","image_path":"images/Car/With_Backgrounds/difficulty6_image0.png","trial_type":"image-button-response","trial_index":72,"time_elapsed":167098,"internal_node_id":"0.0-2.0-0.70"},{"rt":2194,"stimulus":"images/Boat/With_Backgrounds/difficulty7_image4.png","response":0,"category":"Boat","background_difficulty":"7","image_path":"images/Boat/With_Backgrounds/difficulty7_image4.png","trial_type":"image-button-response","trial_index":73,"time_elapsed":169306,"internal_node_id":"0.0-2.0-0.71"},{"rt":2971,"stimulus":["<h2>Press the button below to end experiment.</h2><p>Thank you for participating!</p>"],"response":0,"trial_type":"html-button-response","trial_index":74,"time_elapsed":172286,"internal_node_id":"0.0-3.0"}]