[{"success":true,"timeout":false,"failed_images":[],"failed_audio":[],"failed_video":[],"trial_type":"preload","trial_index":0,"time_elapsed":867,"internal_node_id":"0.0-0.0"},{"rt":11020,"stimulus":["<h2>Noisy background image classification</h2><p>In this experiment you will briefly see images on top of colored squares of various sizes.</p><p>Your task is to report what each image is, selecting \"None of the Above\" if none of the given options are correct.</p> <p>The possible options are <strong>Boat</strong>, <strong>Broccoli</strong>, <strong>Car</strong>, <strong>Cat</strong>, <strong>Dog</strong>, <strong>Human</strong>, <strong>Tree</strong>, and <strong>None of the Above</strong>"],"response":0,"trial_type":"html-button-response","trial_index":1,"time_elapsed":11890,"internal_node_id":"0.0-1.0"},{"rt":2281,"stimulus":"images/Boat/With_Backgrounds/difficulty8_image7.png","response":0,"category":"Boat","background_difficulty":"8","image_path":"images/Boat/With_Backgrounds/difficulty8_image7.png","trial_type":"image-button-response","trial_index":2,"time_elapsed":14175,"internal_node_id":"0.0-2.0-0.0"},{"rt":1508,"stimulus":"images/Boat/With_Backgrounds/difficulty3_image2.png","response":0,"category":"Boat","background_difficulty":"3","image_path":"images/Boat/With_Backgrounds/difficulty3_image2.png","trial_type":"image-button-response","trial_index":3,"time_elapsed":15685,"internal_node_id":"0.0-2.0-0.1"},{"rt":2105,"stimulus":"images/Tree/With_Backgrounds/difficulty4_image1.png","response":6,"category":"Tree","background_difficulty":"4","image_path":"images/Tree/With_Backgrounds/difficulty4_image1.png","trial_type":"image-button-response","trial_index":4,"time_elapsed":17793,"internal_node_id":"0.0-2.0-0.2"},{"rt":1901,"stimulus":"images/Broccoli/With_Backgrounds/difficulty4_image0.png","response":1,"category":"Broccoli","background_difficulty":"4","image_path":"images/Broccoli/With_Backgrounds/difficulty4_image0.png","trial_type":"image-button-response","trial_index":5,"time_elapsed":19697,"internal_node_id":"0.0-2.0-0.3"},{"rt":1248,"stimulus":"images/Boat/With_Backgrounds/difficulty4_image1.png","response":0,"category":"Boat","background_difficulty":"4","image_path":"images/Boat/With_Backgrounds/difficulty4_image1.png","trial_type":"image-button-response","trial_index":6,"time_elapsed":20947,"internal_node_id":"0.0-2.0-0.4"},{"rt":2535,"stimulus":"images/Other/With_Backgrounds/difficulty4_image3.png","response":7,"category":"Other","background_difficulty":"4","image_path":"images/Other/With_Backgrounds/difficulty4_image3.png","trial_type":"image-button-response","trial_index":7,"time_elapsed":23484,"internal_node_id":"0.0-2.0-0.5"},{"rt":1571,"stimulus":"images/Cat/With_Backgrounds/difficulty7_image5.png","response":3,"category":"Cat","background_difficulty":"7","image_path":"images/Cat/With_Backgrounds/difficulty7_image5.png","trial_type":"image-button-response","trial_index":8,"time_elapsed":25057,"internal_node_id":"0.0-2.0-0.6"},{"rt":1270,"stimulus":"images/Broccoli/With_Backgrounds/difficulty1_image6.png","response":1,"category":"Broccoli","background_difficulty":"1","image_path":"images/Broccoli/With_Backgrounds/difficulty1_image6.png","trial_type":"image-button-response","trial_index":9,"time_elapsed":26329,"internal_node_id":"0.0-2.0-0.7"},{"rt":1272,"stimulus":"images/Boat/With_Backgrounds/difficulty2_image0.png","response":0,"category":"Boat","background_difficulty":"2","image_path":"images/Boat/With_Backgrounds/difficulty2_image0.png","trial_type":"image-button-response","trial_index":10,"time_elapsed":27603,"internal_node_id":"0.0-2.0-0.8"},{"rt":1845,"stimulus":"images/Human/With_Backgrounds/difficulty1_image3.png","response":5,"category":"Human","background_difficulty":"1","image_path":"images/Human/With_Backgrounds/difficulty1_image3.png","trial_type":"image-button-response","trial_index":11,"time_elapsed":29451,"internal_node_id":"0.0-2.0-0.9"},{"rt":1583,"stimulus":"images/Other/With_Backgrounds/difficulty6_image7.png","response":7,"category":"Other","background_difficulty":"6","image_path":"images/Other/With_Backgrounds/difficulty6_image7.png","trial_type":"image-button-response","trial_index":12,"time_elapsed":31036,"internal_node_id":"0.0-2.0-0.10"},{"rt":1234,"stimulus":"images/Dog/With_Backgrounds/difficulty8_image0.png","response":4,"category":"Dog","background_difficulty":"8","image_path":"images/Dog/With_Backgrounds/difficulty8_image0.png","trial_type":"image-button-response","trial_index":13,"time_elapsed":32273,"internal_node_id":"0.0-2.0-0.11"},{"rt":1735,"stimulus":"images/Other/With_Backgrounds/difficulty0_image8.png","response":7,"category":"Other","background_difficulty":"0","image_path":"images/Other/With_Backgrounds/difficulty0_image8.png","trial_type":"image-button-response","trial_index":14,"time_elapsed":34009,"internal_node_id":"0.0-2.0-0.12"},{"rt":1241,"stimulus":"images/Boat/With_Backgrounds/difficulty1_image6.png","response":0,"category":"Boat","background_difficulty":"1","image_path":"images/Boat/With_Backgrounds/difficulty1_image6.png","trial_type":"image-button-response","trial_index":15,"time_elapsed":35252,"internal_node_id":"0.0-2.0-0.13"},{"rt":1188,"stimulus":"images/Dog/With_Backgrounds/difficulty3_image8.png","response":4,"category":"Dog","background_difficulty":"3","image_path":"images/Dog/With_Backgrounds/difficulty3_image8.png","trial_type":"image-button-response","trial_index":16,"time_elapsed":36442,"internal_node_id":"0.0-2.0-0.14"},{"rt":1244,"stimulus":"images/Boat/With_Backgrounds/difficulty6_image5.png","response":0,"category":"Boat","background_difficulty":"6","image_path":"images/Boat/With_Backgrounds/difficulty6_image5.png","trial_type":"image-button-response","trial_index":17,"time_elapsed":37688,"internal_node_id":"0.0-2.0-0.15"},{"rt":1752,"stimulus":"images/Other/With_Backgrounds/difficulty5_image4.png","response":7,"category":"Other","background_difficulty":"5","image_path":"images/Other/With_Backgrounds/difficulty5_image4.png","trial_type":"image-button-response","trial_index":18,"time_elapsed":39443,"internal_node_id":"0.0-2.0-0.16"},{"rt":1066,"stimulus":"images/Tree/With_Backgrounds/difficulty3_image5.png","response":6,"category":"Tree","background_difficulty":"3","image_path":"images/Tree/With_Backgrounds/difficulty3_image5.png","trial_type":"image-button-response","trial_index":19,"time_elapsed":40511,"internal_node_id":"0.0-2.0-0.17"},{"rt":1286,"stimulus":"images/Dog/With_Backgrounds/difficulty6_image3.png","response":4,"category":"Dog","background_difficulty":"6","image_path":"images/Dog/With_Backgrounds/difficulty6_image3.png","trial_type":"image-button-response","trial_index":20,"time_elapsed":41799,"internal_node_id":"0.0-2.0-0.18"},{"rt":2073,"stimulus":"images/Tree/With_Backgrounds/difficulty2_image9.png","response":6,"category":"Tree","background_difficulty":"2","image_path":"images/Tree/With_Backgrounds/difficulty2_image9.png","trial_type":"image-button-response","trial_index":21,"time_elapsed":43874,"internal_node_id":"0.0-2.0-0.19"},{"rt":1156,"stimulus":"images/Tree/With_Backgrounds/difficulty6_image7.png","response":6,"category":"Tree","background_difficulty":"6","image_path":"images/Tree/With_Backgrounds/difficulty6_image7.png","trial_type":"image-button-response","trial_index":22,"time_elapsed":45032,"internal_node_id":"0.0-2.0-0.20"},{"rt":1487,"stimulus":"images/Other/With_Backgrounds/difficulty2_image5.png","response":7,"category":"Other","background_difficulty":"2","image_path":"images/Other/With_Backgrounds/difficulty2_image5.png","trial_type":"image-button-response","trial_index":23,"time_elapsed":46521,"internal_node_id":"0.0-2.0-0.21"},{"rt":1261,"stimulus":"images/Car/With_Backgrounds/difficulty0_image6.png","response":2,"category":"Car","background_difficulty":"0","image_path":"images/Car/With_Backgrounds/difficulty0_image6.png","trial_type":"image-button-response","trial_index":24,"time_elapsed":47785,"internal_node_id":"0.0-2.0-0.22"},{"rt":1165,"stimulus":"images/Dog/With_Backgrounds/difficulty4_image6.png","response":4,"category":"Dog","background_difficulty":"4","image_path":"images/Dog/With_Backgrounds/difficulty4_image6.png","trial_type":"image-button-response","trial_index":25,"time_elapsed":48952,"internal_node_id":"0.0-2.0-0.23"},{"rt":964,"stimulus":"images/Dog/With_Backgrounds/difficulty1_image5.png","response":4,"category":"Dog","background_difficulty":"1","image_path":"images/Dog/With_Backgrounds/difficulty1_image5.png","trial_type":"image-button-response","trial_index":26,"time_elapsed":49919,"internal_node_id":"0.0-2.0-0.24"},{"rt":902,"stimulus":"images/Dog/With_Backgrounds/difficulty5_image2.png","response":4,"category":"Dog","background_difficulty":"5","image_path":"images/Dog/With_Backgrounds/difficulty5_image2.png","trial_type":"image-button-response","trial_index":27,"time_elapsed":50823,"internal_node_id":"0.0-2.0-0.25"},{"rt":1359,"stimulus":"images/Other/With_Backgrounds/difficulty3_image9.png","response":7,"category":"Other","background_difficulty":"3","image_path":"images/Other/With_Backgrounds/difficulty3_image9.png","trial_type":"image-button-response","trial_index":28,"time_elapsed":52184,"internal_node_id":"0.0-2.0-0.26"},{"rt":1134,"stimulus":"images/Cat/With_Backgrounds/difficulty1_image1.png","response":3,"category":"Cat","background_difficulty":"1","image_path":"images/Cat/With_Backgrounds/difficulty1_image1.png","trial_type":"image-button-response","trial_index":29,"time_elapsed":53320,"internal_node_id":"0.0-2.0-0.27"},{"rt":1135,"stimulus":"images/Broccoli/With_Backgrounds/difficulty5_image1.png","response":1,"category":"Broccoli","background_difficulty":"5","image_path":"images/Broccoli/With_Backgrounds/difficulty5_image1.png","trial_type":"image-button-response","trial_index":30,"time_elapsed":54458,"internal_node_id":"0.0-2.0-0.28"},{"rt":1323,"stimulus":"images/Car/With_Backgrounds/difficulty3_image4.png","response":2,"category":"Car","background_difficulty":"3","image_path":"images/Car/With_Backgrounds/difficulty3_image4.png","trial_type":"image-button-response","trial_index":31,"time_elapsed":55783,"internal_node_id":"0.0-2.0-0.29"},{"rt":1443,"stimulus":"images/Human/With_Backgrounds/difficulty8_image9.png","response":5,"category":"Human","background_difficulty":"8","image_path":"images/Human/With_Backgrounds/difficulty8_image9.png","trial_type":"image-button-response","trial_index":32,"time_elapsed":57228,"internal_node_id":"0.0-2.0-0.30"},{"rt":1182,"stimulus":"images/Broccoli/With_Backgrounds/difficulty7_image4.png","response":1,"category":"Broccoli","background_difficulty":"7","image_path":"images/Broccoli/With_Backgrounds/difficulty7_image4.png","trial_type":"image-button-response","trial_index":33,"time_elapsed":58410,"internal_node_id":"0.0-2.0-0.31"},{"rt":1511,"stimulus":"images/Dog/With_Backgrounds/difficulty7_image4.png","response":4,"category":"Dog","background_difficulty":"7","image_path":"images/Dog/With_Backgrounds/difficulty7_image4.png","trial_type":"image-button-response","trial_index":34,"time_elapsed":59923,"internal_node_id":"0.0-2.0-0.32"},{"rt":1960,"stimulus":"images/Other/With_Backgrounds/difficulty7_image6.png","response":7,"category":"Other","background_difficulty":"7","image_path":"images/Other/With_Backgrounds/difficulty7_image6.png","trial_type":"image-button-response","trial_index":35,"time_elapsed":61885,"internal_node_id":"0.0-2.0-0.33"},{"rt":1499,"stimulus":"images/Car/With_Backgrounds/difficulty7_image0.png","response":2,"category":"Car","background_difficulty":"7","image_path":"images/Car/With_Backgrounds/difficulty7_image0.png","trial_type":"image-button-response","trial_index":36,"time_elapsed":63387,"internal_node_id":"0.0-2.0-0.34"},{"rt":1325,"stimulus":"images/Broccoli/With_Backgrounds/difficulty8_image8.png","response":1,"category":"Broccoli","background_difficulty":"8","image_path":"images/Broccoli/With_Backgrounds/difficulty8_image8.png","trial_type":"image-button-response","trial_index":37,"time_elapsed":64714,"internal_node_id":"0.0-2.0-0.35"},{"rt":1197,"stimulus":"images/Cat/With_Backgrounds/difficulty6_image2.png","response":3,"category":"Cat","background_difficulty":"6","image_path":"images/Cat/With_Backgrounds/difficulty6_image2.png","trial_type":"image-button-response","trial_index":38,"time_elapsed":65913,"internal_node_id":"0.0-2.0-0.36"},{"rt":1126,"stimulus":"images/Boat/With_Backgrounds/difficulty7_image4.png","response":0,"category":"Boat","background_difficulty":"7","image_path":"images/Boat/With_Backgrounds/difficulty7_image4.png","trial_type":"image-button-response","trial_index":39,"time_elapsed":67040,"internal_node_id":"0.0-2.0-0.37"},{"rt":1105,"stimulus":"images/Cat/With_Backgrounds/difficulty0_image9.png","response":3,"category":"Cat","background_difficulty":"0","image_path":"images/Cat/With_Backgrounds/difficulty0_image9.png","trial_type":"image-button-response","trial_index":40,"time_elapsed":68148,"internal_node_id":"0.0-2.0-0.38"},{"rt":1386,"stimulus":"images/Human/With_Backgrounds/difficulty2_image5.png","response":5,"category":"Human","background_difficulty":"2","image_path":"images/Human/With_Backgrounds/difficulty2_image5.png","trial_type":"image-button-response","trial_index":41,"time_elapsed":69536,"internal_node_id":"0.0-2.0-0.39"},{"rt":1299,"stimulus":"images/Boat/With_Backgrounds/difficulty5_image3.png","response":0,"category":"Boat","background_difficulty":"5","image_path":"images/Boat/With_Backgrounds/difficulty5_image3.png","trial_type":"image-button-response","trial_index":42,"time_elapsed":70837,"internal_node_id":"0.0-2.0-0.40"},{"rt":1258,"stimulus":"images/Tree/With_Backgrounds/difficulty8_image0.png","response":6,"category":"Tree","background_difficulty":"8","image_path":"images/Tree/With_Backgrounds/difficulty8_image0.png","trial_type":"image-button-response","trial_index":43,"time_elapsed":72098,"internal_node_id":"0.0-2.0-0.41"},{"rt":2138,"stimulus":"images/Cat/With_Backgrounds/difficulty8_image3.png","response":3,"category":"Cat","background_difficulty":"8","image_path":"images/Cat/With_Backgrounds/difficulty8_image3.png","trial_type":"image-button-response","trial_index":44,"time_elapsed":74238,"internal_node_id":"0.0-2.0-0.42"},{"rt":1130,"stimulus":"images/Cat/With_Backgrounds/difficulty5_image0.png","response":3,"category":"Cat","background_difficulty":"5","image_path":"images/Cat/With_Backgrounds/difficulty5_image0.png","trial_type":"image-button-response","trial_index":45,"time_elapsed":75370,"internal_node_id":"0.0-2.0-0.43"},{"rt":991,"stimulus":"images/Car/With_Backgrounds/difficulty2_image5.png","response":2,"category":"Car","background_difficulty":"2","image_path":"images/Car/With_Backgrounds/difficulty2_image5.png","trial_type":"image-button-response","trial_index":46,"time_elapsed":76363,"internal_node_id":"0.0-2.0-0.44"},{"rt":1882,"stimulus":"images/Other/With_Backgrounds/difficulty1_image2.png","response":7,"category":"Other","background_difficulty":"1","image_path":"images/Other/With_Backgrounds/difficulty1_image2.png","trial_type":"image-button-response","trial_index":47,"time_elapsed":78248,"internal_node_id":"0.0-2.0-0.45"},{"rt":1288,"stimulus":"images/Broccoli/With_Backgrounds/difficulty3_image7.png","response":1,"category":"Broccoli","background_difficulty":"3","image_path":"images/Broccoli/With_Backgrounds/difficulty3_image7.png","trial_type":"image-button-response","trial_index":48,"time_elapsed":79538,"internal_node_id":"0.0-2.0-0.46"},{"rt":1523,"stimulus":"images/Tree/With_Backgrounds/difficulty5_image4.png","response":6,"category":"Tree","background_difficulty":"5","image_path":"images/Tree/With_Backgrounds/difficulty5_image4.png","trial_type":"image-button-response","trial_index":49,"time_elapsed":81063,"internal_node_id":"0.0-2.0-0.47"},{"rt":1440,"stimulus":"images/Broccoli/With_Backgrounds/difficulty2_image5.png","response":1,"category":"Broccoli","background_difficulty":"2","image_path":"images/Broccoli/With_Backgrounds/difficulty2_image5.png","trial_type":"image-button-response","trial_index":50,"time_elapsed":82505,"internal_node_id":"0.0-2.0-0.48"},{"rt":1313,"stimulus":"images/Broccoli/With_Backgrounds/difficulty0_image2.png","response":1,"category":"Broccoli","background_difficulty":"0","image_path":"images/Broccoli/With_Backgrounds/difficulty0_image2.png","trial_type":"image-button-response","trial_index":51,"time_elapsed":83821,"internal_node_id":"0.0-2.0-0.49"},{"rt":2212,"stimulus":"images/Car/With_Backgrounds/difficulty5_image9.png","response":2,"category":"Car","background_difficulty":"5","image_path":"images/Car/With_Backgrounds/difficulty5_image9.png","trial_type":"image-button-response","trial_index":52,"time_elapsed":86035,"internal_node_id":"0.0-2.0-0.50"},{"rt":1379,"stimulus":"images/Human/With_Backgrounds/difficulty7_image2.png","response":5,"category":"Human","background_difficulty":"7","image_path":"images/Human/With_Backgrounds/difficulty7_image2.png","trial_type":"image-button-response","trial_index":53,"time_elapsed":87416,"internal_node_id":"0.0-2.0-0.51"},{"rt":1151,"stimulus":"images/Human/With_Backgrounds/difficulty0_image4.png","response":5,"category":"Human","background_difficulty":"0","image_path":"images/Human/With_Backgrounds/difficulty0_image4.png","trial_type":"image-button-response","trial_index":54,"time_elapsed":88569,"internal_node_id":"0.0-2.0-0.52"},{"rt":907,"stimulus":"images/Human/With_Backgrounds/difficulty6_image6.png","response":5,"category":"Human","background_difficulty":"6","image_path":"images/Human/With_Backgrounds/difficulty6_image6.png","trial_type":"image-button-response","trial_index":55,"time_elapsed":89478,"internal_node_id":"0.0-2.0-0.53"},{"rt":1538,"stimulus":"images/Car/With_Backgrounds/difficulty6_image2.png","response":2,"category":"Car","background_difficulty":"6","image_path":"images/Car/With_Backgrounds/difficulty6_image2.png","trial_type":"image-button-response","trial_index":56,"time_elapsed":91019,"internal_node_id":"0.0-2.0-0.54"},{"rt":1081,"stimulus":"images/Car/With_Backgrounds/difficulty8_image3.png","response":2,"category":"Car","background_difficulty":"8","image_path":"images/Car/With_Backgrounds/difficulty8_image3.png","trial_type":"image-button-response","trial_index":57,"time_elapsed":92101,"internal_node_id":"0.0-2.0-0.55"},{"rt":1236,"stimulus":"images/Tree/With_Backgrounds/difficulty1_image3.png","response":6,"category":"Tree","background_difficulty":"1","image_path":"images/Tree/With_Backgrounds/difficulty1_image3.png","trial_type":"image-button-response","trial_index":58,"time_elapsed":93340,"internal_node_id":"0.0-2.0-0.56"},{"rt":1396,"stimulus":"images/Cat/With_Backgrounds/difficulty3_image7.png","response":3,"category":"Cat","background_difficulty":"3","image_path":"images/Cat/With_Backgrounds/difficulty3_image7.png","trial_type":"image-button-response","trial_index":59,"time_elapsed":94739,"internal_node_id":"0.0-2.0-0.57"},{"rt":1555,"stimulus":"images/Other/With_Backgrounds/difficulty8_image1.png","response":7,"category":"Other","background_difficulty":"8","image_path":"images/Other/With_Backgrounds/difficulty8_image1.png","trial_type":"image-button-response","trial_index":60,"time_elapsed":96297,"internal_node_id":"0.0-2.0-0.58"},{"rt":1440,"stimulus":"images/Broccoli/With_Backgrounds/difficulty6_image3.png","response":1,"category":"Broccoli","background_difficulty":"6","image_path":"images/Broccoli/With_Backgrounds/difficulty6_image3.png","trial_type":"image-button-response","trial_index":61,"time_elapsed":97739,"internal_node_id":"0.0-2.0-0.59"},{"rt":1330,"stimulus":"images/Boat/With_Backgrounds/difficulty0_image9.png","response":0,"category":"Boat","background_difficulty":"0","image_path":"images/Boat/With_Backgrounds/difficulty0_image9.png","trial_type":"image-button-response","trial_index":62,"time_elapsed":99071,"internal_node_id":"0.0-2.0-0.60"},{"rt":2743,"stimulus":"images/Car/With_Backgrounds/difficulty1_image1.png","response":2,"category":"Car","background_difficulty":"1","image_path":"images/Car/With_Backgrounds/difficulty1_image1.png","trial_type":"image-button-response","trial_index":63,"time_elapsed":101817,"internal_node_id":"0.0-2.0-0.61"},{"rt":1213,"stimulus":"images/Human/With_Backgrounds/difficulty3_image1.png","response":5,"category":"Human","background_difficulty":"3","image_path":"images/Human/With_Backgrounds/difficulty3_image1.png","trial_type":"image-button-response","trial_index":64,"time_elapsed":103032,"internal_node_id":"0.0-2.0-0.62"},{"rt":1279,"stimulus":"images/Human/With_Backgrounds/difficulty5_image0.png","response":5,"category":"Human","background_difficulty":"5","image_path":"images/Human/With_Backgrounds/difficulty5_image0.png","trial_type":"image-button-response","trial_index":65,"time_elapsed":104314,"internal_node_id":"0.0-2.0-0.63"},{"rt":1235,"stimulus":"images/Cat/With_Backgrounds/difficulty2_image8.png","response":3,"category":"Cat","background_difficulty":"2","image_path":"images/Cat/With_Backgrounds/difficulty2_image8.png","trial_type":"image-button-response","trial_index":66,"time_elapsed":105551,"internal_node_id":"0.0-2.0-0.64"},{"rt":1761,"stimulus":"images/Car/With_Backgrounds/difficulty4_image8.png","response":2,"category":"Car","background_difficulty":"4","image_path":"images/Car/With_Backgrounds/difficulty4_image8.png","trial_type":"image-button-response","trial_index":67,"time_elapsed":107314,"internal_node_id":"0.0-2.0-0.65"},{"rt":1326,"stimulus":"images/Tree/With_Backgrounds/difficulty0_image8.png","response":6,"category":"Tree","background_difficulty":"0","image_path":"images/Tree/With_Backgrounds/difficulty0_image8.png","trial_type":"image-button-response","trial_index":68,"time_elapsed":108643,"internal_node_id":"0.0-2.0-0.66"},{"rt":1335,"stimulus":"images/Cat/With_Backgrounds/difficulty4_image4.png","response":3,"category":"Cat","background_difficulty":"4","image_path":"images/Cat/With_Backgrounds/difficulty4_image4.png","trial_type":"image-button-response","trial_index":69,"time_elapsed":109980,"internal_node_id":"0.0-2.0-0.67"},{"rt":976,"stimulus":"images/Dog/With_Backgrounds/difficulty2_image7.png","response":4,"category":"Dog","background_difficulty":"2","image_path":"images/Dog/With_Backgrounds/difficulty2_image7.png","trial_type":"image-button-response","trial_index":70,"time_elapsed":110958,"internal_node_id":"0.0-2.0-0.68"},{"rt":1033,"stimulus":"images/Tree/With_Backgrounds/difficulty7_image6.png","response":6,"category":"Tree","background_difficulty":"7","image_path":"images/Tree/With_Backgrounds/difficulty7_image6.png","trial_type":"image-button-response","trial_index":71,"time_elapsed":111993,"internal_node_id":"0.0-2.0-0.69"},{"rt":1131,"stimulus":"images/Dog/With_Backgrounds/difficulty0_image9.png","response":4,"category":"Dog","background_difficulty":"0","image_path":"images/Dog/With_Backgrounds/difficulty0_image9.png","trial_type":"image-button-response","trial_index":72,"time_elapsed":113126,"internal_node_id":"0.0-2.0-0.70"},{"rt":1027,"stimulus":"images/Human/With_Backgrounds/difficulty4_image8.png","response":5,"category":"Human","background_difficulty":"4","image_path":"images/Human/With_Backgrounds/difficulty4_image8.png","trial_type":"image-button-response","trial_index":73,"time_elapsed":114156,"internal_node_id":"0.0-2.0-0.71"},{"rt":1466,"stimulus":["<h2>Press the button below to end experiment.</h2><p>Thank you for participating!</p>"],"response":0,"trial_type":"html-button-response","trial_index":74,"time_elapsed":115623,"internal_node_id":"0.0-3.0"}]