[{"success":true,"timeout":false,"failed_images":[],"failed_audio":[],"failed_video":[],"trial_type":"preload","trial_index":0,"time_elapsed":2594,"internal_node_id":"0.0-0.0"},{"rt":2969,"stimulus":["<h2>Noisy background image classification</h2><p>In this experiment you will briefly see images on top of colored squares of various sizes.</p><p>Your task is to report what each image is, selecting \"None of the Above\" if none of the given options are correct.</p> <p>The possible options are <strong>Boat</strong>, <strong>Broccoli</strong>, <strong>Car</strong>, <strong>Cat</strong>, <strong>Dog</strong>, <strong>Human</strong>, <strong>Tree</strong>, and <strong>None of the Above</strong>"],"response":0,"trial_type":"html-button-response","trial_index":1,"time_elapsed":5565,"internal_node_id":"0.0-1.0"},{"rt":2385,"stimulus":"images/Cat/With_Backgrounds/difficulty3_image4.png","response":5,"category":"Cat","background_difficulty":"3","image_path":"images/Cat/With_Backgrounds/difficulty3_image4.png","trial_type":"image-button-response","trial_index":2,"time_elapsed":7957,"internal_node_id":"0.0-2.0-0.0"},{"rt":1597,"stimulus":"images/Dog/With_Backgrounds/difficulty5_image8.png","response":7,"category":"Dog","background_difficulty":"5","image_path":"images/Dog/With_Backgrounds/difficulty5_image8.png","trial_type":"image-button-response","trial_index":3,"time_elapsed":9556,"internal_node_id":"0.0-2.0-0.1"},{"rt":947,"stimulus":"images/Tree/With_Backgrounds/difficulty7_image5.png","response":6,"category":"Tree","background_difficulty":"7","image_path":"images/Tree/With_Backgrounds/difficulty7_image5.png","trial_type":"image-button-response","trial_index":4,"time_elapsed":10505,"internal_node_id":"0.0-2.0-0.2"},{"rt":2098,"stimulus":"images/Other/With_Backgrounds/difficulty1_image3.png","response":3,"category":"Other","background_difficulty":"1","image_path":"images/Other/With_Backgrounds/difficulty1_image3.png","trial_type":"image-button-response","trial_index":5,"time_elapsed":12605,"internal_node_id":"0.0-2.0-0.3"},{"rt":531,"stimulus":"images/Dog/With_Backgrounds/difficulty7_image4.png","response":3,"category":"Dog","background_difficulty":"7","image_path":"images/Dog/With_Backgrounds/difficulty7_image4.png","trial_type":"image-button-response","trial_index":6,"time_elapsed":13140,"internal_node_id":"0.0-2.0-0.4"},{"rt":755,"stimulus":"images/Broccoli/With_Backgrounds/difficulty4_image7.png","response":3,"category":"Broccoli","background_difficulty":"4","image_path":"images/Broccoli/With_Backgrounds/difficulty4_image7.png","trial_type":"image-button-response","trial_index":7,"time_elapsed":13897,"internal_node_id":"0.0-2.0-0.5"},{"rt":1054,"stimulus":"images/Cat/With_Backgrounds/difficulty5_image2.png","response":2,"category":"Cat","background_difficulty":"5","image_path":"images/Cat/With_Backgrounds/difficulty5_image2.png","trial_type":"image-button-response","trial_index":8,"time_elapsed":14952,"internal_node_id":"0.0-2.0-0.6"},{"rt":709,"stimulus":"images/Other/With_Backgrounds/difficulty0_image9.png","response":2,"category":"Other","background_difficulty":"0","image_path":"images/Other/With_Backgrounds/difficulty0_image9.png","trial_type":"image-button-response","trial_index":9,"time_elapsed":15663,"internal_node_id":"0.0-2.0-0.7"},{"rt":513,"stimulus":"images/Tree/With_Backgrounds/difficulty0_image2.png","response":2,"category":"Tree","background_difficulty":"0","image_path":"images/Tree/With_Backgrounds/difficulty0_image2.png","trial_type":"image-button-response","trial_index":10,"time_elapsed":16180,"internal_node_id":"0.0-2.0-0.8"},{"rt":531,"stimulus":"images/Broccoli/With_Backgrounds/difficulty3_image3.png","response":2,"category":"Broccoli","background_difficulty":"3","image_path":"images/Broccoli/With_Backgrounds/difficulty3_image3.png","trial_type":"image-button-response","trial_index":11,"time_elapsed":16713,"internal_node_id":"0.0-2.0-0.9"},{"rt":432,"stimulus":"images/Tree/With_Backgrounds/difficulty3_image3.png","response":2,"category":"Tree","background_difficulty":"3","image_path":"images/Tree/With_Backgrounds/difficulty3_image3.png","trial_type":"image-button-response","trial_index":12,"time_elapsed":17147,"internal_node_id":"0.0-2.0-0.10"},{"rt":405,"stimulus":"images/Broccoli/With_Backgrounds/difficulty6_image4.png","response":2,"category":"Broccoli","background_difficulty":"6","image_path":"images/Broccoli/With_Backgrounds/difficulty6_image4.png","trial_type":"image-button-response","trial_index":13,"time_elapsed":17555,"internal_node_id":"0.0-2.0-0.11"},{"rt":480,"stimulus":"images/Dog/With_Backgrounds/difficulty6_image0.png","response":2,"category":"Dog","background_difficulty":"6","image_path":"images/Dog/With_Backgrounds/difficulty6_image0.png","trial_type":"image-button-response","trial_index":14,"time_elapsed":18036,"internal_node_id":"0.0-2.0-0.12"},{"rt":294,"stimulus":"images/Tree/With_Backgrounds/difficulty1_image8.png","response":2,"category":"Tree","background_difficulty":"1","image_path":"images/Tree/With_Backgrounds/difficulty1_image8.png","trial_type":"image-button-response","trial_index":15,"time_elapsed":18332,"internal_node_id":"0.0-2.0-0.13"},{"rt":320,"stimulus":"images/Other/With_Backgrounds/difficulty6_image7.png","response":2,"category":"Other","background_difficulty":"6","image_path":"images/Other/With_Backgrounds/difficulty6_image7.png","trial_type":"image-button-response","trial_index":16,"time_elapsed":18655,"internal_node_id":"0.0-2.0-0.14"},{"rt":322,"stimulus":"images/Cat/With_Backgrounds/difficulty6_image6.png","response":2,"category":"Cat","background_difficulty":"6","image_path":"images/Cat/With_Backgrounds/difficulty6_image6.png","trial_type":"image-button-response","trial_index":17,"time_elapsed":18980,"internal_node_id":"0.0-2.0-0.15"},{"rt":341,"stimulus":"images/Broccoli/With_Backgrounds/difficulty8_image0.png","response":2,"category":"Broccoli","background_difficulty":"8","image_path":"images/Broccoli/With_Backgrounds/difficulty8_image0.png","trial_type":"image-button-response","trial_index":18,"time_elapsed":19324,"internal_node_id":"0.0-2.0-0.16"},{"rt":521,"stimulus":"images/Other/With_Backgrounds/difficulty3_image0.png","response":2,"category":"Other","background_difficulty":"3","image_path":"images/Other/With_Backgrounds/difficulty3_image0.png","trial_type":"image-button-response","trial_index":19,"time_elapsed":19847,"internal_node_id":"0.0-2.0-0.17"},{"rt":487,"stimulus":"images/Dog/With_Backgrounds/difficulty1_image9.png","response":2,"category":"Dog","background_difficulty":"1","image_path":"images/Dog/With_Backgrounds/difficulty1_image9.png","trial_type":"image-button-response","trial_index":20,"time_elapsed":20338,"internal_node_id":"0.0-2.0-0.18"},{"rt":438,"stimulus":"images/Dog/With_Backgrounds/difficulty0_image1.png","response":2,"category":"Dog","background_difficulty":"0","image_path":"images/Dog/With_Backgrounds/difficulty0_image1.png","trial_type":"image-button-response","trial_index":21,"time_elapsed":20780,"internal_node_id":"0.0-2.0-0.19"},{"rt":1016,"stimulus":"images/Car/With_Backgrounds/difficulty1_image8.png","response":1,"category":"Car","background_difficulty":"1","image_path":"images/Car/With_Backgrounds/difficulty1_image8.png","trial_type":"image-button-response","trial_index":22,"time_elapsed":21798,"internal_node_id":"0.0-2.0-0.20"},{"rt":537,"stimulus":"images/Boat/With_Backgrounds/difficulty2_image8.png","response":1,"category":"Boat","background_difficulty":"2","image_path":"images/Boat/With_Backgrounds/difficulty2_image8.png","trial_type":"image-button-response","trial_index":23,"time_elapsed":22337,"internal_node_id":"0.0-2.0-0.21"},{"rt":271,"stimulus":"images/Boat/With_Backgrounds/difficulty5_image9.png","response":1,"category":"Boat","background_difficulty":"5","image_path":"images/Boat/With_Backgrounds/difficulty5_image9.png","trial_type":"image-button-response","trial_index":24,"time_elapsed":22611,"internal_node_id":"0.0-2.0-0.22"},{"rt":483,"stimulus":"images/Human/With_Backgrounds/difficulty5_image4.png","response":1,"category":"Human","background_difficulty":"5","image_path":"images/Human/With_Backgrounds/difficulty5_image4.png","trial_type":"image-button-response","trial_index":25,"time_elapsed":23097,"internal_node_id":"0.0-2.0-0.23"},{"rt":1274,"stimulus":"images/Tree/With_Backgrounds/difficulty8_image4.png","response":0,"category":"Tree","background_difficulty":"8","image_path":"images/Tree/With_Backgrounds/difficulty8_image4.png","trial_type":"image-button-response","trial_index":26,"time_elapsed":24373,"internal_node_id":"0.0-2.0-0.24"},{"rt":186,"stimulus":"images/Car/With_Backgrounds/difficulty8_image1.png","response":0,"category":"Car","background_difficulty":"8","image_path":"images/Car/With_Backgrounds/difficulty8_image1.png","trial_type":"image-button-response","trial_index":27,"time_elapsed":24561,"internal_node_id":"0.0-2.0-0.25"},{"rt":282,"stimulus":"images/Human/With_Backgrounds/difficulty7_image8.png","response":0,"category":"Human","background_difficulty":"7","image_path":"images/Human/With_Backgrounds/difficulty7_image8.png","trial_type":"image-button-response","trial_index":28,"time_elapsed":24845,"internal_node_id":"0.0-2.0-0.26"},{"rt":347,"stimulus":"images/Cat/With_Backgrounds/difficulty8_image5.png","response":0,"category":"Cat","background_difficulty":"8","image_path":"images/Cat/With_Backgrounds/difficulty8_image5.png","trial_type":"image-button-response","trial_index":29,"time_elapsed":25194,"internal_node_id":"0.0-2.0-0.27"},{"rt":286,"stimulus":"images/Boat/With_Backgrounds/difficulty8_image4.png","response":0,"category":"Boat","background_difficulty":"8","image_path":"images/Boat/With_Backgrounds/difficulty8_image4.png","trial_type":"image-button-response","trial_index":30,"time_elapsed":25482,"internal_node_id":"0.0-2.0-0.28"},{"rt":1047,"stimulus":"images/Other/With_Backgrounds/difficulty7_image6.png","response":0,"category":"Other","background_difficulty":"7","image_path":"images/Other/With_Backgrounds/difficulty7_image6.png","trial_type":"image-button-response","trial_index":31,"time_elapsed":26531,"internal_node_id":"0.0-2.0-0.29"},{"rt":199,"stimulus":"images/Human/With_Backgrounds/difficulty8_image2.png","response":0,"category":"Human","background_difficulty":"8","image_path":"images/Human/With_Backgrounds/difficulty8_image2.png","trial_type":"image-button-response","trial_index":32,"time_elapsed":26732,"internal_node_id":"0.0-2.0-0.30"},{"rt":184,"stimulus":"images/Boat/With_Backgrounds/difficulty0_image1.png","response":0,"category":"Boat","background_difficulty":"0","image_path":"images/Boat/With_Backgrounds/difficulty0_image1.png","trial_type":"image-button-response","trial_index":33,"time_elapsed":26919,"internal_node_id":"0.0-2.0-0.31"},{"rt":182,"stimulus":"images/Boat/With_Backgrounds/difficulty7_image7.png","response":0,"category":"Boat","background_difficulty":"7","image_path":"images/Boat/With_Backgrounds/difficulty7_image7.png","trial_type":"image-button-response","trial_index":34,"time_elapsed":27102,"internal_node_id":"0.0-2.0-0.32"},{"rt":185,"stimulus":"images/Tree/With_Backgrounds/difficulty2_image0.png","response":0,"category":"Tree","background_difficulty":"2","image_path":"images/Tree/With_Backgrounds/difficulty2_image0.png","trial_type":"image-button-response","trial_index":35,"time_elapsed":27288,"internal_node_id":"0.0-2.0-0.33"},{"rt":213,"stimulus":"images/Dog/With_Backgrounds/difficulty8_image7.png","response":0,"category":"Dog","background_difficulty":"8","image_path":"images/Dog/With_Backgrounds/difficulty8_image7.png","trial_type":"image-button-response","trial_index":36,"time_elapsed":27504,"internal_node_id":"0.0-2.0-0.34"},{"rt":205,"stimulus":"images/Other/With_Backgrounds/difficulty2_image1.png","response":0,"category":"Other","background_difficulty":"2","image_path":"images/Other/With_Backgrounds/difficulty2_image1.png","trial_type":"image-button-response","trial_index":37,"time_elapsed":27710,"internal_node_id":"0.0-2.0-0.35"},{"rt":217,"stimulus":"images/Car/With_Backgrounds/difficulty5_image7.png","response":0,"category":"Car","background_difficulty":"5","image_path":"images/Car/With_Backgrounds/difficulty5_image7.png","trial_type":"image-button-response","trial_index":38,"time_elapsed":27930,"internal_node_id":"0.0-2.0-0.36"},{"rt":180,"stimulus":"images/Boat/With_Backgrounds/difficulty1_image3.png","response":0,"category":"Boat","background_difficulty":"1","image_path":"images/Boat/With_Backgrounds/difficulty1_image3.png","trial_type":"image-button-response","trial_index":39,"time_elapsed":28113,"internal_node_id":"0.0-2.0-0.37"},{"rt":204,"stimulus":"images/Broccoli/With_Backgrounds/difficulty0_image5.png","response":0,"category":"Broccoli","background_difficulty":"0","image_path":"images/Broccoli/With_Backgrounds/difficulty0_image5.png","trial_type":"image-button-response","trial_index":40,"time_elapsed":28320,"internal_node_id":"0.0-2.0-0.38"},{"rt":216,"stimulus":"images/Car/With_Backgrounds/difficulty0_image5.png","response":0,"category":"Car","background_difficulty":"0","image_path":"images/Car/With_Backgrounds/difficulty0_image5.png","trial_type":"image-button-response","trial_index":41,"time_elapsed":28538,"internal_node_id":"0.0-2.0-0.39"},{"rt":224,"stimulus":"images/Other/With_Backgrounds/difficulty5_image8.png","response":0,"category":"Other","background_difficulty":"5","image_path":"images/Other/With_Backgrounds/difficulty5_image8.png","trial_type":"image-button-response","trial_index":42,"time_elapsed":28764,"internal_node_id":"0.0-2.0-0.40"},{"rt":213,"stimulus":"images/Boat/With_Backgrounds/difficulty3_image6.png","response":0,"category":"Boat","background_difficulty":"3","image_path":"images/Boat/With_Backgrounds/difficulty3_image6.png","trial_type":"image-button-response","trial_index":43,"time_elapsed":28980,"internal_node_id":"0.0-2.0-0.41"},{"rt":215,"stimulus":"images/Cat/With_Backgrounds/difficulty7_image3.png","response":0,"category":"Cat","background_difficulty":"7","image_path":"images/Cat/With_Backgrounds/difficulty7_image3.png","trial_type":"image-button-response","trial_index":44,"time_elapsed":29197,"internal_node_id":"0.0-2.0-0.42"},{"rt":205,"stimulus":"images/Tree/With_Backgrounds/difficulty6_image7.png","response":0,"category":"Tree","background_difficulty":"6","image_path":"images/Tree/With_Backgrounds/difficulty6_image7.png","trial_type":"image-button-response","trial_index":45,"time_elapsed":29404,"internal_node_id":"0.0-2.0-0.43"},{"rt":213,"stimulus":"images/Other/With_Backgrounds/difficulty8_image5.png","response":0,"category":"Other","background_difficulty":"8","image_path":"images/Other/With_Backgrounds/difficulty8_image5.png","trial_type":"image-button-response","trial_index":46,"time_elapsed":29621,"internal_node_id":"0.0-2.0-0.44"},{"rt":205,"stimulus":"images/Human/With_Backgrounds/difficulty2_image7.png","response":0,"category":"Human","background_difficulty":"2","image_path":"images/Human/With_Backgrounds/difficulty2_image7.png","trial_type":"image-button-response","trial_index":47,"time_elapsed":29829,"internal_node_id":"0.0-2.0-0.45"},{"rt":214,"stimulus":"images/Human/With_Backgrounds/difficulty6_image6.png","response":0,"category":"Human","background_difficulty":"6","image_path":"images/Human/With_Backgrounds/difficulty6_image6.png","trial_type":"image-button-response","trial_index":48,"time_elapsed":30045,"internal_node_id":"0.0-2.0-0.46"},{"rt":213,"stimulus":"images/Car/With_Backgrounds/difficulty3_image9.png","response":0,"category":"Car","background_difficulty":"3","image_path":"images/Car/With_Backgrounds/difficulty3_image9.png","trial_type":"image-button-response","trial_index":49,"time_elapsed":30261,"internal_node_id":"0.0-2.0-0.47"},{"rt":233,"stimulus":"images/Car/With_Backgrounds/difficulty6_image3.png","response":0,"category":"Car","background_difficulty":"6","image_path":"images/Car/With_Backgrounds/difficulty6_image3.png","trial_type":"image-button-response","trial_index":50,"time_elapsed":30496,"internal_node_id":"0.0-2.0-0.48"},{"rt":414,"stimulus":"images/Human/With_Backgrounds/difficulty0_image3.png","response":0,"category":"Human","background_difficulty":"0","image_path":"images/Human/With_Backgrounds/difficulty0_image3.png","trial_type":"image-button-response","trial_index":51,"time_elapsed":30913,"internal_node_id":"0.0-2.0-0.49"},{"rt":239,"stimulus":"images/Broccoli/With_Backgrounds/difficulty1_image8.png","response":0,"category":"Broccoli","background_difficulty":"1","image_path":"images/Broccoli/With_Backgrounds/difficulty1_image8.png","trial_type":"image-button-response","trial_index":52,"time_elapsed":31154,"internal_node_id":"0.0-2.0-0.50"},{"rt":205,"stimulus":"images/Cat/With_Backgrounds/difficulty2_image1.png","response":0,"category":"Cat","background_difficulty":"2","image_path":"images/Cat/With_Backgrounds/difficulty2_image1.png","trial_type":"image-button-response","trial_index":53,"time_elapsed":31363,"internal_node_id":"0.0-2.0-0.51"},{"rt":197,"stimulus":"images/Car/With_Backgrounds/difficulty2_image2.png","response":0,"category":"Car","background_difficulty":"2","image_path":"images/Car/With_Backgrounds/difficulty2_image2.png","trial_type":"image-button-response","trial_index":54,"time_elapsed":31562,"internal_node_id":"0.0-2.0-0.52"},{"rt":198,"stimulus":"images/Cat/With_Backgrounds/difficulty0_image8.png","response":0,"category":"Cat","background_difficulty":"0","image_path":"images/Cat/With_Backgrounds/difficulty0_image8.png","trial_type":"image-button-response","trial_index":55,"time_elapsed":31763,"internal_node_id":"0.0-2.0-0.53"},{"rt":213,"stimulus":"images/Broccoli/With_Backgrounds/difficulty7_image6.png","response":0,"category":"Broccoli","background_difficulty":"7","image_path":"images/Broccoli/With_Backgrounds/difficulty7_image6.png","trial_type":"image-button-response","trial_index":56,"time_elapsed":31979,"internal_node_id":"0.0-2.0-0.54"},{"rt":189,"stimulus":"images/Dog/With_Backgrounds/difficulty2_image2.png","response":0,"category":"Dog","background_difficulty":"2","image_path":"images/Dog/With_Backgrounds/difficulty2_image2.png","trial_type":"image-button-response","trial_index":57,"time_elapsed":32171,"internal_node_id":"0.0-2.0-0.55"},{"rt":213,"stimulus":"images/Human/With_Backgrounds/difficulty4_image5.png","response":0,"category":"Human","background_difficulty":"4","image_path":"images/Human/With_Backgrounds/difficulty4_image5.png","trial_type":"image-button-response","trial_index":58,"time_elapsed":32388,"internal_node_id":"0.0-2.0-0.56"},{"rt":205,"stimulus":"images/Human/With_Backgrounds/difficulty3_image1.png","response":0,"category":"Human","background_difficulty":"3","image_path":"images/Human/With_Backgrounds/difficulty3_image1.png","trial_type":"image-button-response","trial_index":59,"time_elapsed":32596,"internal_node_id":"0.0-2.0-0.57"},{"rt":214,"stimulus":"images/Broccoli/With_Backgrounds/difficulty5_image9.png","response":0,"category":"Broccoli","background_difficulty":"5","image_path":"images/Broccoli/With_Backgrounds/difficulty5_image9.png","trial_type":"image-button-response","trial_index":60,"time_elapsed":32813,"internal_node_id":"0.0-2.0-0.58"},{"rt":203,"stimulus":"images/Other/With_Backgrounds/difficulty4_image4.png","response":0,"category":"Other","background_difficulty":"4","image_path":"images/Other/With_Backgrounds/difficulty4_image4.png","trial_type":"image-button-response","trial_index":61,"time_elapsed":33018,"internal_node_id":"0.0-2.0-0.59"},{"rt":209,"stimulus":"images/Dog/With_Backgrounds/difficulty4_image3.png","response":0,"category":"Dog","background_difficulty":"4","image_path":"images/Dog/With_Backgrounds/difficulty4_image3.png","trial_type":"image-button-response","trial_index":62,"time_elapsed":33229,"internal_node_id":"0.0-2.0-0.60"},{"rt":221,"stimulus":"images/Cat/With_Backgrounds/difficulty4_image0.png","response":0,"category":"Cat","background_difficulty":"4","image_path":"images/Cat/With_Backgrounds/difficulty4_image0.png","trial_type":"image-button-response","trial_index":63,"time_elapsed":33453,"internal_node_id":"0.0-2.0-0.61"},{"rt":215,"stimulus":"images/Tree/With_Backgrounds/difficulty4_image9.png","response":0,"category":"Tree","background_difficulty":"4","image_path":"images/Tree/With_Backgrounds/difficulty4_image9.png","trial_type":"image-button-response","trial_index":64,"time_elapsed":33671,"internal_node_id":"0.0-2.0-0.62"},{"rt":198,"stimulus":"images/Broccoli/With_Backgrounds/difficulty2_image2.png","response":0,"category":"Broccoli","background_difficulty":"2","image_path":"images/Broccoli/With_Backgrounds/difficulty2_image2.png","trial_type":"image-button-response","trial_index":65,"time_elapsed":33871,"internal_node_id":"0.0-2.0-0.63"},{"rt":214,"stimulus":"images/Cat/With_Backgrounds/difficulty1_image7.png","response":0,"category":"Cat","background_difficulty":"1","image_path":"images/Cat/With_Backgrounds/difficulty1_image7.png","trial_type":"image-button-response","trial_index":66,"time_elapsed":34088,"internal_node_id":"0.0-2.0-0.64"},{"rt":223,"stimulus":"images/Car/With_Backgrounds/difficulty7_image4.png","response":0,"category":"Car","background_difficulty":"7","image_path":"images/Car/With_Backgrounds/difficulty7_image4.png","trial_type":"image-button-response","trial_index":67,"time_elapsed":34314,"internal_node_id":"0.0-2.0-0.65"},{"rt":214,"stimulus":"images/Tree/With_Backgrounds/difficulty5_image6.png","response":0,"category":"Tree","background_difficulty":"5","image_path":"images/Tree/With_Backgrounds/difficulty5_image6.png","trial_type":"image-button-response","trial_index":68,"time_elapsed":34531,"internal_node_id":"0.0-2.0-0.66"},{"rt":220,"stimulus":"images/Car/With_Backgrounds/difficulty4_image0.png","response":0,"category":"Car","background_difficulty":"4","image_path":"images/Car/With_Backgrounds/difficulty4_image0.png","trial_type":"image-button-response","trial_index":69,"time_elapsed":34753,"internal_node_id":"0.0-2.0-0.67"},{"rt":275,"stimulus":"images/Human/With_Backgrounds/difficulty1_image0.png","response":0,"category":"Human","background_difficulty":"1","image_path":"images/Human/With_Backgrounds/difficulty1_image0.png","trial_type":"image-button-response","trial_index":70,"time_elapsed":35033,"internal_node_id":"0.0-2.0-0.68"},{"rt":201,"stimulus":"images/Boat/With_Backgrounds/difficulty4_image5.png","response":0,"category":"Boat","background_difficulty":"4","image_path":"images/Boat/With_Backgrounds/difficulty4_image5.png","trial_type":"image-button-response","trial_index":71,"time_elapsed":35237,"internal_node_id":"0.0-2.0-0.69"},{"rt":201,"stimulus":"images/Dog/With_Backgrounds/difficulty3_image5.png","response":0,"category":"Dog","background_difficulty":"3","image_path":"images/Dog/With_Backgrounds/difficulty3_image5.png","trial_type":"image-button-response","trial_index":72,"time_elapsed":35440,"internal_node_id":"0.0-2.0-0.70"},{"rt":212,"stimulus":"images/Boat/With_Backgrounds/difficulty6_image2.png","response":0,"category":"Boat","background_difficulty":"6","image_path":"images/Boat/With_Backgrounds/difficulty6_image2.png","trial_type":"image-button-response","trial_index":73,"time_elapsed":35654,"internal_node_id":"0.0-2.0-0.71"},{"rt":2190,"stimulus":["<h2>Press the button below to end experiment.</h2><p>Thank you for participating!</p>"],"response":0,"trial_type":"html-button-response","trial_index":74,"time_elapsed":37847,"internal_node_id":"0.0-3.0"}]