[{"success":true,"timeout":false,"failed_images":[],"failed_audio":[],"failed_video":[],"trial_type":"preload","trial_index":0,"time_elapsed":946,"internal_node_id":"0.0-0.0"},{"rt":3927,"stimulus":["<h2>Noisy background image classification</h2><p>In this experiment you will briefly see images on top of colored squares of various sizes.</p><p>Your task is to report what each image is, selecting \"None of the Above\" if none of the given options are correct.</p> <p>The possible options are <strong>Boat</strong>, <strong>Broccoli</strong>, <strong>Car</strong>, <strong>Cat</strong>, <strong>Dog</strong>, <strong>Human</strong>, <strong>Tree</strong>, and <strong>None of the Above</strong>"],"response":0,"trial_type":"html-button-response","trial_index":1,"time_elapsed":4874,"internal_node_id":"0.0-1.0"},{"rt":2568,"stimulus":"images/Tree/With_Backgrounds/difficulty2_image1.png","response":6,"category":"Tree","background_difficulty":"2","image_path":"images/Tree/With_Backgrounds/difficulty2_image1.png","trial_type":"image-button-response","trial_index":2,"time_elapsed":7447,"internal_node_id":"0.0-2.0-0.0"},{"rt":5254,"stimulus":"images/Other/With_Backgrounds/difficulty8_image7.png","response":7,"category":"Other","background_difficulty":"8","image_path":"images/Other/With_Backgrounds/difficulty8_image7.png","trial_type":"image-button-response","trial_index":3,"time_elapsed":12705,"internal_node_id":"0.0-2.0-0.1"},{"rt":1987,"stimulus":"images/Car/With_Backgrounds/difficulty0_image0.png","response":2,"category":"Car","background_difficulty":"0","image_path":"images/Car/With_Backgrounds/difficulty0_image0.png","trial_type":"image-button-response","trial_index":4,"time_elapsed":14695,"internal_node_id":"0.0-2.0-0.2"},{"rt":2397,"stimulus":"images/Car/With_Backgrounds/difficulty5_image7.png","response":2,"category":"Car","background_difficulty":"5","image_path":"images/Car/With_Backgrounds/difficulty5_image7.png","trial_type":"image-button-response","trial_index":5,"time_elapsed":17095,"internal_node_id":"0.0-2.0-0.3"},{"rt":2086,"stimulus":"images/Cat/With_Backgrounds/difficulty7_image6.png","response":3,"category":"Cat","background_difficulty":"7","image_path":"images/Cat/With_Backgrounds/difficulty7_image6.png","trial_type":"image-button-response","trial_index":6,"time_elapsed":19183,"internal_node_id":"0.0-2.0-0.4"},{"rt":1056,"stimulus":"images/Cat/With_Backgrounds/difficulty8_image4.png","response":3,"category":"Cat","background_difficulty":"8","image_path":"images/Cat/With_Backgrounds/difficulty8_image4.png","trial_type":"image-button-response","trial_index":7,"time_elapsed":20242,"internal_node_id":"0.0-2.0-0.5"},{"rt":2236,"stimulus":"images/Dog/With_Backgrounds/difficulty3_image6.png","response":4,"category":"Dog","background_difficulty":"3","image_path":"images/Dog/With_Backgrounds/difficulty3_image6.png","trial_type":"image-button-response","trial_index":8,"time_elapsed":22479,"internal_node_id":"0.0-2.0-0.6"},{"rt":1502,"stimulus":"images/Car/With_Backgrounds/difficulty1_image6.png","response":2,"category":"Car","background_difficulty":"1","image_path":"images/Car/With_Backgrounds/difficulty1_image6.png","trial_type":"image-button-response","trial_index":9,"time_elapsed":23983,"internal_node_id":"0.0-2.0-0.7"},{"rt":1885,"stimulus":"images/Boat/With_Backgrounds/difficulty8_image7.png","response":0,"category":"Boat","background_difficulty":"8","image_path":"images/Boat/With_Backgrounds/difficulty8_image7.png","trial_type":"image-button-response","trial_index":10,"time_elapsed":25870,"internal_node_id":"0.0-2.0-0.8"},{"rt":1215,"stimulus":"images/Broccoli/With_Backgrounds/difficulty4_image9.png","response":1,"category":"Broccoli","background_difficulty":"4","image_path":"images/Broccoli/With_Backgrounds/difficulty4_image9.png","trial_type":"image-button-response","trial_index":11,"time_elapsed":27088,"internal_node_id":"0.0-2.0-0.9"},{"rt":1461,"stimulus":"images/Cat/With_Backgrounds/difficulty1_image3.png","response":3,"category":"Cat","background_difficulty":"1","image_path":"images/Cat/With_Backgrounds/difficulty1_image3.png","trial_type":"image-button-response","trial_index":12,"time_elapsed":28551,"internal_node_id":"0.0-2.0-0.10"},{"rt":1948,"stimulus":"images/Dog/With_Backgrounds/difficulty7_image0.png","response":4,"category":"Dog","background_difficulty":"7","image_path":"images/Dog/With_Backgrounds/difficulty7_image0.png","trial_type":"image-button-response","trial_index":13,"time_elapsed":30502,"internal_node_id":"0.0-2.0-0.11"},{"rt":2699,"stimulus":"images/Tree/With_Backgrounds/difficulty3_image3.png","response":6,"category":"Tree","background_difficulty":"3","image_path":"images/Tree/With_Backgrounds/difficulty3_image3.png","trial_type":"image-button-response","trial_index":14,"time_elapsed":33204,"internal_node_id":"0.0-2.0-0.12"},{"rt":2389,"stimulus":"images/Other/With_Backgrounds/difficulty5_image3.png","response":7,"category":"Other","background_difficulty":"5","image_path":"images/Other/With_Backgrounds/difficulty5_image3.png","trial_type":"image-button-response","trial_index":15,"time_elapsed":35595,"internal_node_id":"0.0-2.0-0.13"},{"rt":1327,"stimulus":"images/Broccoli/With_Backgrounds/difficulty7_image4.png","response":1,"category":"Broccoli","background_difficulty":"7","image_path":"images/Broccoli/With_Backgrounds/difficulty7_image4.png","trial_type":"image-button-response","trial_index":16,"time_elapsed":36925,"internal_node_id":"0.0-2.0-0.14"},{"rt":2651,"stimulus":"images/Tree/With_Backgrounds/difficulty4_image6.png","response":6,"category":"Tree","background_difficulty":"4","image_path":"images/Tree/With_Backgrounds/difficulty4_image6.png","trial_type":"image-button-response","trial_index":17,"time_elapsed":39580,"internal_node_id":"0.0-2.0-0.15"},{"rt":1684,"stimulus":"images/Car/With_Backgrounds/difficulty7_image4.png","response":2,"category":"Car","background_difficulty":"7","image_path":"images/Car/With_Backgrounds/difficulty7_image4.png","trial_type":"image-button-response","trial_index":18,"time_elapsed":41266,"internal_node_id":"0.0-2.0-0.16"},{"rt":1444,"stimulus":"images/Boat/With_Backgrounds/difficulty3_image3.png","response":0,"category":"Boat","background_difficulty":"3","image_path":"images/Boat/With_Backgrounds/difficulty3_image3.png","trial_type":"image-button-response","trial_index":19,"time_elapsed":42711,"internal_node_id":"0.0-2.0-0.17"},{"rt":1350,"stimulus":"images/Cat/With_Backgrounds/difficulty4_image9.png","response":3,"category":"Cat","background_difficulty":"4","image_path":"images/Cat/With_Backgrounds/difficulty4_image9.png","trial_type":"image-button-response","trial_index":20,"time_elapsed":44063,"internal_node_id":"0.0-2.0-0.18"},{"rt":2172,"stimulus":"images/Human/With_Backgrounds/difficulty1_image4.png","response":5,"category":"Human","background_difficulty":"1","image_path":"images/Human/With_Backgrounds/difficulty1_image4.png","trial_type":"image-button-response","trial_index":21,"time_elapsed":46237,"internal_node_id":"0.0-2.0-0.19"},{"rt":1832,"stimulus":"images/Cat/With_Backgrounds/difficulty6_image1.png","response":3,"category":"Cat","background_difficulty":"6","image_path":"images/Cat/With_Backgrounds/difficulty6_image1.png","trial_type":"image-button-response","trial_index":22,"time_elapsed":48071,"internal_node_id":"0.0-2.0-0.20"},{"rt":1805,"stimulus":"images/Other/With_Backgrounds/difficulty6_image1.png","response":7,"category":"Other","background_difficulty":"6","image_path":"images/Other/With_Backgrounds/difficulty6_image1.png","trial_type":"image-button-response","trial_index":23,"time_elapsed":49878,"internal_node_id":"0.0-2.0-0.21"},{"rt":2405,"stimulus":"images/Other/With_Backgrounds/difficulty3_image9.png","response":7,"category":"Other","background_difficulty":"3","image_path":"images/Other/With_Backgrounds/difficulty3_image9.png","trial_type":"image-button-response","trial_index":24,"time_elapsed":52286,"internal_node_id":"0.0-2.0-0.22"},{"rt":1328,"stimulus":"images/Boat/With_Backgrounds/difficulty0_image0.png","response":0,"category":"Boat","background_difficulty":"0","image_path":"images/Boat/With_Backgrounds/difficulty0_image0.png","trial_type":"image-button-response","trial_index":25,"time_elapsed":53616,"internal_node_id":"0.0-2.0-0.23"},{"rt":1525,"stimulus":"images/Dog/With_Backgrounds/difficulty6_image1.png","response":4,"category":"Dog","background_difficulty":"6","image_path":"images/Dog/With_Backgrounds/difficulty6_image1.png","trial_type":"image-button-response","trial_index":26,"time_elapsed":55144,"internal_node_id":"0.0-2.0-0.24"},{"rt":1250,"stimulus":"images/Car/With_Backgrounds/difficulty8_image3.png","response":2,"category":"Car","background_difficulty":"8","image_path":"images/Car/With_Backgrounds/difficulty8_image3.png","trial_type":"image-button-response","trial_index":27,"time_elapsed":56396,"internal_node_id":"0.0-2.0-0.25"},{"rt":1296,"stimulus":"images/Dog/With_Backgrounds/difficulty1_image4.png","response":4,"category":"Dog","background_difficulty":"1","image_path":"images/Dog/With_Backgrounds/difficulty1_image4.png","trial_type":"image-button-response","trial_index":28,"time_elapsed":57694,"internal_node_id":"0.0-2.0-0.26"},{"rt":1937,"stimulus":"images/Tree/With_Backgrounds/difficulty7_image9.png","response":6,"category":"Tree","background_difficulty":"7","image_path":"images/Tree/With_Backgrounds/difficulty7_image9.png","trial_type":"image-button-response","trial_index":29,"time_elapsed":59633,"internal_node_id":"0.0-2.0-0.27"},{"rt":1502,"stimulus":"images/Human/With_Backgrounds/difficulty3_image9.png","response":5,"category":"Human","background_difficulty":"3","image_path":"images/Human/With_Backgrounds/difficulty3_image9.png","trial_type":"image-button-response","trial_index":30,"time_elapsed":61136,"internal_node_id":"0.0-2.0-0.28"},{"rt":1131,"stimulus":"images/Broccoli/With_Backgrounds/difficulty3_image7.png","response":1,"category":"Broccoli","background_difficulty":"3","image_path":"images/Broccoli/With_Backgrounds/difficulty3_image7.png","trial_type":"image-button-response","trial_index":31,"time_elapsed":62270,"internal_node_id":"0.0-2.0-0.29"},{"rt":1214,"stimulus":"images/Car/With_Backgrounds/difficulty3_image5.png","response":2,"category":"Car","background_difficulty":"3","image_path":"images/Car/With_Backgrounds/difficulty3_image5.png","trial_type":"image-button-response","trial_index":32,"time_elapsed":63486,"internal_node_id":"0.0-2.0-0.30"},{"rt":1148,"stimulus":"images/Human/With_Backgrounds/difficulty2_image0.png","response":5,"category":"Human","background_difficulty":"2","image_path":"images/Human/With_Backgrounds/difficulty2_image0.png","trial_type":"image-button-response","trial_index":33,"time_elapsed":64636,"internal_node_id":"0.0-2.0-0.31"},{"rt":1323,"stimulus":"images/Boat/With_Backgrounds/difficulty5_image1.png","response":0,"category":"Boat","background_difficulty":"5","image_path":"images/Boat/With_Backgrounds/difficulty5_image1.png","trial_type":"image-button-response","trial_index":34,"time_elapsed":65961,"internal_node_id":"0.0-2.0-0.32"},{"rt":1648,"stimulus":"images/Tree/With_Backgrounds/difficulty0_image7.png","response":6,"category":"Tree","background_difficulty":"0","image_path":"images/Tree/With_Backgrounds/difficulty0_image7.png","trial_type":"image-button-response","trial_index":35,"time_elapsed":67611,"internal_node_id":"0.0-2.0-0.33"},{"rt":1173,"stimulus":"images/Tree/With_Backgrounds/difficulty6_image4.png","response":6,"category":"Tree","background_difficulty":"6","image_path":"images/Tree/With_Backgrounds/difficulty6_image4.png","trial_type":"image-button-response","trial_index":36,"time_elapsed":68786,"internal_node_id":"0.0-2.0-0.34"},{"rt":2194,"stimulus":"images/Human/With_Backgrounds/difficulty4_image2.png","response":5,"category":"Human","background_difficulty":"4","image_path":"images/Human/With_Backgrounds/difficulty4_image2.png","trial_type":"image-button-response","trial_index":37,"time_elapsed":70982,"internal_node_id":"0.0-2.0-0.35"},{"rt":1602,"stimulus":"images/Other/With_Backgrounds/difficulty1_image2.png","response":7,"category":"Other","background_difficulty":"1","image_path":"images/Other/With_Backgrounds/difficulty1_image2.png","trial_type":"image-button-response","trial_index":38,"time_elapsed":72586,"internal_node_id":"0.0-2.0-0.36"},{"rt":1189,"stimulus":"images/Human/With_Backgrounds/difficulty6_image1.png","response":5,"category":"Human","background_difficulty":"6","image_path":"images/Human/With_Backgrounds/difficulty6_image1.png","trial_type":"image-button-response","trial_index":39,"time_elapsed":73778,"internal_node_id":"0.0-2.0-0.37"},{"rt":2431,"stimulus":"images/Tree/With_Backgrounds/difficulty8_image2.png","response":6,"category":"Tree","background_difficulty":"8","image_path":"images/Tree/With_Backgrounds/difficulty8_image2.png","trial_type":"image-button-response","trial_index":40,"time_elapsed":76211,"internal_node_id":"0.0-2.0-0.38"},{"rt":1319,"stimulus":"images/Other/With_Backgrounds/difficulty0_image8.png","response":7,"category":"Other","background_difficulty":"0","image_path":"images/Other/With_Backgrounds/difficulty0_image8.png","trial_type":"image-button-response","trial_index":41,"time_elapsed":77532,"internal_node_id":"0.0-2.0-0.39"},{"rt":1270,"stimulus":"images/Human/With_Backgrounds/difficulty8_image8.png","response":5,"category":"Human","background_difficulty":"8","image_path":"images/Human/With_Backgrounds/difficulty8_image8.png","trial_type":"image-button-response","trial_index":42,"time_elapsed":78804,"internal_node_id":"0.0-2.0-0.40"},{"rt":1405,"stimulus":"images/Boat/With_Backgrounds/difficulty4_image6.png","response":0,"category":"Boat","background_difficulty":"4","image_path":"images/Boat/With_Backgrounds/difficulty4_image6.png","trial_type":"image-button-response","trial_index":43,"time_elapsed":80211,"internal_node_id":"0.0-2.0-0.41"},{"rt":2387,"stimulus":"images/Tree/With_Backgrounds/difficulty1_image8.png","response":6,"category":"Tree","background_difficulty":"1","image_path":"images/Tree/With_Backgrounds/difficulty1_image8.png","trial_type":"image-button-response","trial_index":44,"time_elapsed":82600,"internal_node_id":"0.0-2.0-0.42"},{"rt":1676,"stimulus":"images/Car/With_Backgrounds/difficulty2_image2.png","response":2,"category":"Car","background_difficulty":"2","image_path":"images/Car/With_Backgrounds/difficulty2_image2.png","trial_type":"image-button-response","trial_index":45,"time_elapsed":84277,"internal_node_id":"0.0-2.0-0.43"},{"rt":1400,"stimulus":"images/Cat/With_Backgrounds/difficulty5_image2.png","response":3,"category":"Cat","background_difficulty":"5","image_path":"images/Cat/With_Backgrounds/difficulty5_image2.png","trial_type":"image-button-response","trial_index":46,"time_elapsed":85679,"internal_node_id":"0.0-2.0-0.44"},{"rt":926,"stimulus":"images/Dog/With_Backgrounds/difficulty2_image3.png","response":4,"category":"Dog","background_difficulty":"2","image_path":"images/Dog/With_Backgrounds/difficulty2_image3.png","trial_type":"image-button-response","trial_index":47,"time_elapsed":86607,"internal_node_id":"0.0-2.0-0.45"},{"rt":1107,"stimulus":"images/Broccoli/With_Backgrounds/difficulty0_image2.png","response":1,"category":"Broccoli","background_difficulty":"0","image_path":"images/Broccoli/With_Backgrounds/difficulty0_image2.png","trial_type":"image-button-response","trial_index":48,"time_elapsed":87716,"internal_node_id":"0.0-2.0-0.46"},{"rt":1424,"stimulus":"images/Dog/With_Backgrounds/difficulty8_image7.png","response":4,"category":"Dog","background_difficulty":"8","image_path":"images/Dog/With_Backgrounds/difficulty8_image7.png","trial_type":"image-button-response","trial_index":49,"time_elapsed":89145,"internal_node_id":"0.0-2.0-0.47"},{"rt":1238,"stimulus":"images/Cat/With_Backgrounds/difficulty0_image7.png","response":3,"category":"Cat","background_difficulty":"0","image_path":"images/Cat/With_Backgrounds/difficulty0_image7.png","trial_type":"image-button-response","trial_index":50,"time_elapsed":90385,"internal_node_id":"0.0-2.0-0.48"},{"rt":1006,"stimulus":"images/Broccoli/With_Backgrounds/difficulty5_image5.png","response":1,"category":"Broccoli","background_difficulty":"5","image_path":"images/Broccoli/With_Backgrounds/difficulty5_image5.png","trial_type":"image-button-response","trial_index":51,"time_elapsed":91394,"internal_node_id":"0.0-2.0-0.49"},{"rt":934,"stimulus":"images/Broccoli/With_Backgrounds/difficulty6_image0.png","response":1,"category":"Broccoli","background_difficulty":"6","image_path":"images/Broccoli/With_Backgrounds/difficulty6_image0.png","trial_type":"image-button-response","trial_index":52,"time_elapsed":92331,"internal_node_id":"0.0-2.0-0.50"},{"rt":1160,"stimulus":"images/Cat/With_Backgrounds/difficulty3_image0.png","response":3,"category":"Cat","background_difficulty":"3","image_path":"images/Cat/With_Backgrounds/difficulty3_image0.png","trial_type":"image-button-response","trial_index":53,"time_elapsed":93492,"internal_node_id":"0.0-2.0-0.51"},{"rt":1645,"stimulus":"images/Car/With_Backgrounds/difficulty6_image8.png","response":2,"category":"Car","background_difficulty":"6","image_path":"images/Car/With_Backgrounds/difficulty6_image8.png","trial_type":"image-button-response","trial_index":54,"time_elapsed":95140,"internal_node_id":"0.0-2.0-0.52"},{"rt":1235,"stimulus":"images/Boat/With_Backgrounds/difficulty2_image2.png","response":0,"category":"Boat","background_difficulty":"2","image_path":"images/Boat/With_Backgrounds/difficulty2_image2.png","trial_type":"image-button-response","trial_index":55,"time_elapsed":96377,"internal_node_id":"0.0-2.0-0.53"},{"rt":1368,"stimulus":"images/Other/With_Backgrounds/difficulty2_image6.png","response":7,"category":"Other","background_difficulty":"2","image_path":"images/Other/With_Backgrounds/difficulty2_image6.png","trial_type":"image-button-response","trial_index":56,"time_elapsed":97748,"internal_node_id":"0.0-2.0-0.54"},{"rt":1502,"stimulus":"images/Other/With_Backgrounds/difficulty4_image4.png","response":7,"category":"Other","background_difficulty":"4","image_path":"images/Other/With_Backgrounds/difficulty4_image4.png","trial_type":"image-button-response","trial_index":57,"time_elapsed":99252,"internal_node_id":"0.0-2.0-0.55"},{"rt":1074,"stimulus":"images/Human/With_Backgrounds/difficulty0_image5.png","response":5,"category":"Human","background_difficulty":"0","image_path":"images/Human/With_Backgrounds/difficulty0_image5.png","trial_type":"image-button-response","trial_index":58,"time_elapsed":100328,"internal_node_id":"0.0-2.0-0.56"},{"rt":688,"stimulus":"images/Human/With_Backgrounds/difficulty5_image6.png","response":5,"category":"Human","background_difficulty":"5","image_path":"images/Human/With_Backgrounds/difficulty5_image6.png","trial_type":"image-button-response","trial_index":59,"time_elapsed":101019,"internal_node_id":"0.0-2.0-0.57"},{"rt":699,"stimulus":"images/Human/With_Backgrounds/difficulty7_image7.png","response":5,"category":"Human","background_difficulty":"7","image_path":"images/Human/With_Backgrounds/difficulty7_image7.png","trial_type":"image-button-response","trial_index":60,"time_elapsed":101720,"internal_node_id":"0.0-2.0-0.58"},{"rt":1578,"stimulus":"images/Boat/With_Backgrounds/difficulty6_image4.png","response":0,"category":"Boat","background_difficulty":"6","image_path":"images/Boat/With_Backgrounds/difficulty6_image4.png","trial_type":"image-button-response","trial_index":61,"time_elapsed":103300,"internal_node_id":"0.0-2.0-0.59"},{"rt":1138,"stimulus":"images/Broccoli/With_Backgrounds/difficulty2_image8.png","response":1,"category":"Broccoli","background_difficulty":"2","image_path":"images/Broccoli/With_Backgrounds/difficulty2_image8.png","trial_type":"image-button-response","trial_index":62,"time_elapsed":104440,"internal_node_id":"0.0-2.0-0.60"},{"rt":1751,"stimulus":"images/Car/With_Backgrounds/difficulty4_image1.png","response":2,"category":"Car","background_difficulty":"4","image_path":"images/Car/With_Backgrounds/difficulty4_image1.png","trial_type":"image-button-response","trial_index":63,"time_elapsed":106193,"internal_node_id":"0.0-2.0-0.61"},{"rt":1195,"stimulus":"images/Dog/With_Backgrounds/difficulty5_image8.png","response":4,"category":"Dog","background_difficulty":"5","image_path":"images/Dog/With_Backgrounds/difficulty5_image8.png","trial_type":"image-button-response","trial_index":64,"time_elapsed":107390,"internal_node_id":"0.0-2.0-0.62"},{"rt":1418,"stimulus":"images/Other/With_Backgrounds/difficulty7_image5.png","response":7,"category":"Other","background_difficulty":"7","image_path":"images/Other/With_Backgrounds/difficulty7_image5.png","trial_type":"image-button-response","trial_index":65,"time_elapsed":108810,"internal_node_id":"0.0-2.0-0.63"},{"rt":2179,"stimulus":"images/Dog/With_Backgrounds/difficulty0_image2.png","response":4,"category":"Dog","background_difficulty":"0","image_path":"images/Dog/With_Backgrounds/difficulty0_image2.png","trial_type":"image-button-response","trial_index":66,"time_elapsed":110992,"internal_node_id":"0.0-2.0-0.64"},{"rt":1078,"stimulus":"images/Broccoli/With_Backgrounds/difficulty1_image6.png","response":1,"category":"Broccoli","background_difficulty":"1","image_path":"images/Broccoli/With_Backgrounds/difficulty1_image6.png","trial_type":"image-button-response","trial_index":67,"time_elapsed":112073,"internal_node_id":"0.0-2.0-0.65"},{"rt":2323,"stimulus":"images/Tree/With_Backgrounds/difficulty5_image5.png","response":6,"category":"Tree","background_difficulty":"5","image_path":"images/Tree/With_Backgrounds/difficulty5_image5.png","trial_type":"image-button-response","trial_index":68,"time_elapsed":114398,"internal_node_id":"0.0-2.0-0.66"},{"rt":1323,"stimulus":"images/Cat/With_Backgrounds/difficulty2_image5.png","response":3,"category":"Cat","background_difficulty":"2","image_path":"images/Cat/With_Backgrounds/difficulty2_image5.png","trial_type":"image-button-response","trial_index":69,"time_elapsed":115723,"internal_node_id":"0.0-2.0-0.67"},{"rt":2060,"stimulus":"images/Broccoli/With_Backgrounds/difficulty8_image3.png","response":1,"category":"Broccoli","background_difficulty":"8","image_path":"images/Broccoli/With_Backgrounds/difficulty8_image3.png","trial_type":"image-button-response","trial_index":70,"time_elapsed":117786,"internal_node_id":"0.0-2.0-0.68"},{"rt":1823,"stimulus":"images/Dog/With_Backgrounds/difficulty4_image9.png","response":4,"category":"Dog","background_difficulty":"4","image_path":"images/Dog/With_Backgrounds/difficulty4_image9.png","trial_type":"image-button-response","trial_index":71,"time_elapsed":119611,"internal_node_id":"0.0-2.0-0.69"},{"rt":1335,"stimulus":"images/Boat/With_Backgrounds/difficulty1_image8.png","response":0,"category":"Boat","background_difficulty":"1","image_path":"images/Boat/With_Backgrounds/difficulty1_image8.png","trial_type":"image-button-response","trial_index":72,"time_elapsed":120948,"internal_node_id":"0.0-2.0-0.70"},{"rt":5151,"stimulus":"images/Boat/With_Backgrounds/difficulty7_image5.png","response":0,"category":"Boat","background_difficulty":"7","image_path":"images/Boat/With_Backgrounds/difficulty7_image5.png","trial_type":"image-button-response","trial_index":73,"time_elapsed":126102,"internal_node_id":"0.0-2.0-0.71"},{"rt":1165,"stimulus":["<h2>Press the button below to end experiment.</h2><p>Thank you for participating!</p>"],"response":0,"trial_type":"html-button-response","trial_index":74,"time_elapsed":127271,"internal_node_id":"0.0-3.0"}]