[{"success":true,"timeout":false,"failed_images":[],"failed_audio":[],"failed_video":[],"trial_type":"preload","trial_index":0,"time_elapsed":2668,"internal_node_id":"0.0-0.0"},{"rt":2000,"stimulus":["<h2>Noisy background image classification</h2><p>In this experiment you will briefly see images on top of colored squares of various sizes.</p><p>Your task is to report what each image is, selecting \"None of the Above\" if none of the given options are correct.</p> <p>The possible options are <strong>Boat</strong>, <strong>Broccoli</strong>, <strong>Car</strong>, <strong>Cat</strong>, <strong>Dog</strong>, <strong>Human</strong>, <strong>Tree</strong>, and <strong>None of the Above</strong>"],"response":0,"trial_type":"html-button-response","trial_index":1,"time_elapsed":4668,"internal_node_id":"0.0-1.0"},{"rt":1694,"stimulus":"images/Boat/With_Backgrounds/difficulty7_image7.png","response":0,"category":"Boat","background_difficulty":"7","image_path":"images/Boat/With_Backgrounds/difficulty7_image7.png","trial_type":"image-button-response","trial_index":2,"time_elapsed":6364,"internal_node_id":"0.0-2.0-0.0"},{"rt":1337,"stimulus":"images/Tree/With_Backgrounds/difficulty0_image9.png","response":6,"category":"Tree","background_difficulty":"0","image_path":"images/Tree/With_Backgrounds/difficulty0_image9.png","trial_type":"image-button-response","trial_index":3,"time_elapsed":7704,"internal_node_id":"0.0-2.0-0.1"},{"rt":1195,"stimulus":"images/Boat/With_Backgrounds/difficulty4_image6.png","response":0,"category":"Boat","background_difficulty":"4","image_path":"images/Boat/With_Backgrounds/difficulty4_image6.png","trial_type":"image-button-response","trial_index":4,"time_elapsed":8901,"internal_node_id":"0.0-2.0-0.2"},{"rt":669,"stimulus":"images/Boat/With_Backgrounds/difficulty8_image3.png","response":0,"category":"Boat","background_difficulty":"8","image_path":"images/Boat/With_Backgrounds/difficulty8_image3.png","trial_type":"image-button-response","trial_index":5,"time_elapsed":9574,"internal_node_id":"0.0-2.0-0.3"},{"rt":1662,"stimulus":"images/Cat/With_Backgrounds/difficulty1_image9.png","response":3,"category":"Cat","background_difficulty":"1","image_path":"images/Cat/With_Backgrounds/difficulty1_image9.png","trial_type":"image-button-response","trial_index":6,"time_elapsed":11238,"internal_node_id":"0.0-2.0-0.4"},{"rt":1275,"stimulus":"images/Broccoli/With_Backgrounds/difficulty6_image9.png","response":1,"category":"Broccoli","background_difficulty":"6","image_path":"images/Broccoli/With_Backgrounds/difficulty6_image9.png","trial_type":"image-button-response","trial_index":7,"time_elapsed":12517,"internal_node_id":"0.0-2.0-0.5"},{"rt":1114,"stimulus":"images/Dog/With_Backgrounds/difficulty7_image9.png","response":4,"category":"Dog","background_difficulty":"7","image_path":"images/Dog/With_Backgrounds/difficulty7_image9.png","trial_type":"image-button-response","trial_index":8,"time_elapsed":13634,"internal_node_id":"0.0-2.0-0.6"},{"rt":1069,"stimulus":"images/Human/With_Backgrounds/difficulty4_image0.png","response":5,"category":"Human","background_difficulty":"4","image_path":"images/Human/With_Backgrounds/difficulty4_image0.png","trial_type":"image-button-response","trial_index":9,"time_elapsed":14705,"internal_node_id":"0.0-2.0-0.7"},{"rt":4268,"stimulus":"images/Other/With_Backgrounds/difficulty8_image4.png","response":7,"category":"Other","background_difficulty":"8","image_path":"images/Other/With_Backgrounds/difficulty8_image4.png","trial_type":"image-button-response","trial_index":10,"time_elapsed":18976,"internal_node_id":"0.0-2.0-0.8"},{"rt":1161,"stimulus":"images/Cat/With_Backgrounds/difficulty2_image3.png","response":3,"category":"Cat","background_difficulty":"2","image_path":"images/Cat/With_Backgrounds/difficulty2_image3.png","trial_type":"image-button-response","trial_index":11,"time_elapsed":20140,"internal_node_id":"0.0-2.0-0.9"},{"rt":1183,"stimulus":"images/Dog/With_Backgrounds/difficulty2_image1.png","response":4,"category":"Dog","background_difficulty":"2","image_path":"images/Dog/With_Backgrounds/difficulty2_image1.png","trial_type":"image-button-response","trial_index":12,"time_elapsed":21324,"internal_node_id":"0.0-2.0-0.10"},{"rt":946,"stimulus":"images/Broccoli/With_Backgrounds/difficulty0_image6.png","response":1,"category":"Broccoli","background_difficulty":"0","image_path":"images/Broccoli/With_Backgrounds/difficulty0_image6.png","trial_type":"image-button-response","trial_index":13,"time_elapsed":22272,"internal_node_id":"0.0-2.0-0.11"},{"rt":1218,"stimulus":"images/Other/With_Backgrounds/difficulty7_image7.png","response":7,"category":"Other","background_difficulty":"7","image_path":"images/Other/With_Backgrounds/difficulty7_image7.png","trial_type":"image-button-response","trial_index":14,"time_elapsed":23492,"internal_node_id":"0.0-2.0-0.12"},{"rt":2335,"stimulus":"images/Car/With_Backgrounds/difficulty2_image7.png","response":7,"category":"Car","background_difficulty":"2","image_path":"images/Car/With_Backgrounds/difficulty2_image7.png","trial_type":"image-button-response","trial_index":15,"time_elapsed":25829,"internal_node_id":"0.0-2.0-0.13"},{"rt":1072,"stimulus":"images/Boat/With_Backgrounds/difficulty5_image4.png","response":0,"category":"Boat","background_difficulty":"5","image_path":"images/Boat/With_Backgrounds/difficulty5_image4.png","trial_type":"image-button-response","trial_index":16,"time_elapsed":26902,"internal_node_id":"0.0-2.0-0.14"},{"rt":1244,"stimulus":"images/Cat/With_Backgrounds/difficulty3_image5.png","response":3,"category":"Cat","background_difficulty":"3","image_path":"images/Cat/With_Backgrounds/difficulty3_image5.png","trial_type":"image-button-response","trial_index":17,"time_elapsed":28150,"internal_node_id":"0.0-2.0-0.15"},{"rt":2173,"stimulus":"images/Other/With_Backgrounds/difficulty0_image6.png","response":7,"category":"Other","background_difficulty":"0","image_path":"images/Other/With_Backgrounds/difficulty0_image6.png","trial_type":"image-button-response","trial_index":18,"time_elapsed":30326,"internal_node_id":"0.0-2.0-0.16"},{"rt":1098,"stimulus":"images/Dog/With_Backgrounds/difficulty5_image3.png","response":4,"category":"Dog","background_difficulty":"5","image_path":"images/Dog/With_Backgrounds/difficulty5_image3.png","trial_type":"image-button-response","trial_index":19,"time_elapsed":31426,"internal_node_id":"0.0-2.0-0.17"},{"rt":1214,"stimulus":"images/Car/With_Backgrounds/difficulty3_image4.png","response":2,"category":"Car","background_difficulty":"3","image_path":"images/Car/With_Backgrounds/difficulty3_image4.png","trial_type":"image-button-response","trial_index":20,"time_elapsed":32641,"internal_node_id":"0.0-2.0-0.18"},{"rt":897,"stimulus":"images/Car/With_Backgrounds/difficulty5_image2.png","response":2,"category":"Car","background_difficulty":"5","image_path":"images/Car/With_Backgrounds/difficulty5_image2.png","trial_type":"image-button-response","trial_index":21,"time_elapsed":33539,"internal_node_id":"0.0-2.0-0.19"},{"rt":1215,"stimulus":"images/Boat/With_Backgrounds/difficulty1_image0.png","response":0,"category":"Boat","background_difficulty":"1","image_path":"images/Boat/With_Backgrounds/difficulty1_image0.png","trial_type":"image-button-response","trial_index":22,"time_elapsed":34756,"internal_node_id":"0.0-2.0-0.20"},{"rt":1153,"stimulus":"images/Other/With_Backgrounds/difficulty3_image5.png","response":7,"category":"Other","background_difficulty":"3","image_path":"images/Other/With_Backgrounds/difficulty3_image5.png","trial_type":"image-button-response","trial_index":23,"time_elapsed":35912,"internal_node_id":"0.0-2.0-0.21"},{"rt":1338,"stimulus":"images/Tree/With_Backgrounds/difficulty2_image7.png","response":6,"category":"Tree","background_difficulty":"2","image_path":"images/Tree/With_Backgrounds/difficulty2_image7.png","trial_type":"image-button-response","trial_index":24,"time_elapsed":37252,"internal_node_id":"0.0-2.0-0.22"},{"rt":1674,"stimulus":"images/Car/With_Backgrounds/difficulty4_image0.png","response":2,"category":"Car","background_difficulty":"4","image_path":"images/Car/With_Backgrounds/difficulty4_image0.png","trial_type":"image-button-response","trial_index":25,"time_elapsed":38928,"internal_node_id":"0.0-2.0-0.23"},{"rt":919,"stimulus":"images/Human/With_Backgrounds/difficulty0_image6.png","response":5,"category":"Human","background_difficulty":"0","image_path":"images/Human/With_Backgrounds/difficulty0_image6.png","trial_type":"image-button-response","trial_index":26,"time_elapsed":39849,"internal_node_id":"0.0-2.0-0.24"},{"rt":1310,"stimulus":"images/Cat/With_Backgrounds/difficulty4_image4.png","response":3,"category":"Cat","background_difficulty":"4","image_path":"images/Cat/With_Backgrounds/difficulty4_image4.png","trial_type":"image-button-response","trial_index":27,"time_elapsed":41162,"internal_node_id":"0.0-2.0-0.25"},{"rt":1077,"stimulus":"images/Human/With_Backgrounds/difficulty7_image3.png","response":5,"category":"Human","background_difficulty":"7","image_path":"images/Human/With_Backgrounds/difficulty7_image3.png","trial_type":"image-button-response","trial_index":28,"time_elapsed":42242,"internal_node_id":"0.0-2.0-0.26"},{"rt":2131,"stimulus":"images/Tree/With_Backgrounds/difficulty6_image3.png","response":6,"category":"Tree","background_difficulty":"6","image_path":"images/Tree/With_Backgrounds/difficulty6_image3.png","trial_type":"image-button-response","trial_index":29,"time_elapsed":44374,"internal_node_id":"0.0-2.0-0.27"},{"rt":1583,"stimulus":"images/Boat/With_Backgrounds/difficulty3_image2.png","response":0,"category":"Boat","background_difficulty":"3","image_path":"images/Boat/With_Backgrounds/difficulty3_image2.png","trial_type":"image-button-response","trial_index":30,"time_elapsed":45957,"internal_node_id":"0.0-2.0-0.28"},{"rt":1316,"stimulus":"images/Broccoli/With_Backgrounds/difficulty8_image1.png","response":1,"category":"Broccoli","background_difficulty":"8","image_path":"images/Broccoli/With_Backgrounds/difficulty8_image1.png","trial_type":"image-button-response","trial_index":31,"time_elapsed":47277,"internal_node_id":"0.0-2.0-0.29"},{"rt":1271,"stimulus":"images/Cat/With_Backgrounds/difficulty5_image6.png","response":3,"category":"Cat","background_difficulty":"5","image_path":"images/Cat/With_Backgrounds/difficulty5_image6.png","trial_type":"image-button-response","trial_index":32,"time_elapsed":48549,"internal_node_id":"0.0-2.0-0.30"},{"rt":1442,"stimulus":"images/Tree/With_Backgrounds/difficulty5_image8.png","response":6,"category":"Tree","background_difficulty":"5","image_path":"images/Tree/With_Backgrounds/difficulty5_image8.png","trial_type":"image-button-response","trial_index":33,"time_elapsed":49993,"internal_node_id":"0.0-2.0-0.31"},{"rt":1273,"stimulus":"images/Broccoli/With_Backgrounds/difficulty2_image5.png","response":1,"category":"Broccoli","background_difficulty":"2","image_path":"images/Broccoli/With_Backgrounds/difficulty2_image5.png","trial_type":"image-button-response","trial_index":34,"time_elapsed":51268,"internal_node_id":"0.0-2.0-0.32"},{"rt":1118,"stimulus":"images/Other/With_Backgrounds/difficulty6_image9.png","response":7,"category":"Other","background_difficulty":"6","image_path":"images/Other/With_Backgrounds/difficulty6_image9.png","trial_type":"image-button-response","trial_index":35,"time_elapsed":52388,"internal_node_id":"0.0-2.0-0.33"},{"rt":1103,"stimulus":"images/Broccoli/With_Backgrounds/difficulty4_image0.png","response":1,"category":"Broccoli","background_difficulty":"4","image_path":"images/Broccoli/With_Backgrounds/difficulty4_image0.png","trial_type":"image-button-response","trial_index":36,"time_elapsed":53493,"internal_node_id":"0.0-2.0-0.34"},{"rt":1229,"stimulus":"images/Other/With_Backgrounds/difficulty2_image0.png","response":7,"category":"Other","background_difficulty":"2","image_path":"images/Other/With_Backgrounds/difficulty2_image0.png","trial_type":"image-button-response","trial_index":37,"time_elapsed":54723,"internal_node_id":"0.0-2.0-0.35"},{"rt":1210,"stimulus":"images/Broccoli/With_Backgrounds/difficulty7_image2.png","response":1,"category":"Broccoli","background_difficulty":"7","image_path":"images/Broccoli/With_Backgrounds/difficulty7_image2.png","trial_type":"image-button-response","trial_index":38,"time_elapsed":55936,"internal_node_id":"0.0-2.0-0.36"},{"rt":1020,"stimulus":"images/Human/With_Backgrounds/difficulty2_image5.png","response":5,"category":"Human","background_difficulty":"2","image_path":"images/Human/With_Backgrounds/difficulty2_image5.png","trial_type":"image-button-response","trial_index":39,"time_elapsed":56958,"internal_node_id":"0.0-2.0-0.37"},{"rt":986,"stimulus":"images/Cat/With_Backgrounds/difficulty8_image2.png","response":3,"category":"Cat","background_difficulty":"8","image_path":"images/Cat/With_Backgrounds/difficulty8_image2.png","trial_type":"image-button-response","trial_index":40,"time_elapsed":57946,"internal_node_id":"0.0-2.0-0.38"},{"rt":1594,"stimulus":"images/Dog/With_Backgrounds/difficulty6_image4.png","response":4,"category":"Dog","background_difficulty":"6","image_path":"images/Dog/With_Backgrounds/difficulty6_image4.png","trial_type":"image-button-response","trial_index":41,"time_elapsed":59542,"internal_node_id":"0.0-2.0-0.39"},{"rt":1002,"stimulus":"images/Dog/With_Backgrounds/difficulty0_image7.png","response":4,"category":"Dog","background_difficulty":"0","image_path":"images/Dog/With_Backgrounds/difficulty0_image7.png","trial_type":"image-button-response","trial_index":42,"time_elapsed":60547,"internal_node_id":"0.0-2.0-0.40"},{"rt":1106,"stimulus":"images/Car/With_Backgrounds/difficulty7_image1.png","response":2,"category":"Car","background_difficulty":"7","image_path":"images/Car/With_Backgrounds/difficulty7_image1.png","trial_type":"image-button-response","trial_index":43,"time_elapsed":61655,"internal_node_id":"0.0-2.0-0.41"},{"rt":916,"stimulus":"images/Dog/With_Backgrounds/difficulty3_image0.png","response":4,"category":"Dog","background_difficulty":"3","image_path":"images/Dog/With_Backgrounds/difficulty3_image0.png","trial_type":"image-button-response","trial_index":44,"time_elapsed":62574,"internal_node_id":"0.0-2.0-0.42"},{"rt":1109,"stimulus":"images/Cat/With_Backgrounds/difficulty6_image7.png","response":3,"category":"Cat","background_difficulty":"6","image_path":"images/Cat/With_Backgrounds/difficulty6_image7.png","trial_type":"image-button-response","trial_index":45,"time_elapsed":63685,"internal_node_id":"0.0-2.0-0.43"},{"rt":867,"stimulus":"images/Cat/With_Backgrounds/difficulty7_image8.png","response":3,"category":"Cat","background_difficulty":"7","image_path":"images/Cat/With_Backgrounds/difficulty7_image8.png","trial_type":"image-button-response","trial_index":46,"time_elapsed":64553,"internal_node_id":"0.0-2.0-0.44"},{"rt":948,"stimulus":"images/Car/With_Backgrounds/difficulty0_image8.png","response":2,"category":"Car","background_difficulty":"0","image_path":"images/Car/With_Backgrounds/difficulty0_image8.png","trial_type":"image-button-response","trial_index":47,"time_elapsed":65504,"internal_node_id":"0.0-2.0-0.45"},{"rt":1150,"stimulus":"images/Tree/With_Backgrounds/difficulty8_image0.png","response":6,"category":"Tree","background_difficulty":"8","image_path":"images/Tree/With_Backgrounds/difficulty8_image0.png","trial_type":"image-button-response","trial_index":48,"time_elapsed":66657,"internal_node_id":"0.0-2.0-0.46"},{"rt":1281,"stimulus":"images/Car/With_Backgrounds/difficulty8_image5.png","response":2,"category":"Car","background_difficulty":"8","image_path":"images/Car/With_Backgrounds/difficulty8_image5.png","trial_type":"image-button-response","trial_index":49,"time_elapsed":67941,"internal_node_id":"0.0-2.0-0.47"},{"rt":804,"stimulus":"images/Dog/With_Backgrounds/difficulty8_image5.png","response":4,"category":"Dog","background_difficulty":"8","image_path":"images/Dog/With_Backgrounds/difficulty8_image5.png","trial_type":"image-button-response","trial_index":50,"time_elapsed":68749,"internal_node_id":"0.0-2.0-0.48"},{"rt":954,"stimulus":"images/Human/With_Backgrounds/difficulty1_image4.png","response":5,"category":"Human","background_difficulty":"1","image_path":"images/Human/With_Backgrounds/difficulty1_image4.png","trial_type":"image-button-response","trial_index":51,"time_elapsed":69705,"internal_node_id":"0.0-2.0-0.49"},{"rt":1507,"stimulus":"images/Tree/With_Backgrounds/difficulty3_image1.png","response":6,"category":"Tree","background_difficulty":"3","image_path":"images/Tree/With_Backgrounds/difficulty3_image1.png","trial_type":"image-button-response","trial_index":52,"time_elapsed":71215,"internal_node_id":"0.0-2.0-0.50"},{"rt":850,"stimulus":"images/Tree/With_Backgrounds/difficulty7_image4.png","response":6,"category":"Tree","background_difficulty":"7","image_path":"images/Tree/With_Backgrounds/difficulty7_image4.png","trial_type":"image-button-response","trial_index":53,"time_elapsed":72067,"internal_node_id":"0.0-2.0-0.51"},{"rt":1285,"stimulus":"images/Other/With_Backgrounds/difficulty5_image3.png","response":7,"category":"Other","background_difficulty":"5","image_path":"images/Other/With_Backgrounds/difficulty5_image3.png","trial_type":"image-button-response","trial_index":54,"time_elapsed":73355,"internal_node_id":"0.0-2.0-0.52"},{"rt":950,"stimulus":"images/Tree/With_Backgrounds/difficulty1_image6.png","response":6,"category":"Tree","background_difficulty":"1","image_path":"images/Tree/With_Backgrounds/difficulty1_image6.png","trial_type":"image-button-response","trial_index":55,"time_elapsed":74308,"internal_node_id":"0.0-2.0-0.53"},{"rt":1178,"stimulus":"images/Dog/With_Backgrounds/difficulty1_image6.png","response":4,"category":"Dog","background_difficulty":"1","image_path":"images/Dog/With_Backgrounds/difficulty1_image6.png","trial_type":"image-button-response","trial_index":56,"time_elapsed":75487,"internal_node_id":"0.0-2.0-0.54"},{"rt":1216,"stimulus":"images/Broccoli/With_Backgrounds/difficulty3_image4.png","response":1,"category":"Broccoli","background_difficulty":"3","image_path":"images/Broccoli/With_Backgrounds/difficulty3_image4.png","trial_type":"image-button-response","trial_index":57,"time_elapsed":76707,"internal_node_id":"0.0-2.0-0.55"},{"rt":979,"stimulus":"images/Dog/With_Backgrounds/difficulty4_image2.png","response":4,"category":"Dog","background_difficulty":"4","image_path":"images/Dog/With_Backgrounds/difficulty4_image2.png","trial_type":"image-button-response","trial_index":58,"time_elapsed":77689,"internal_node_id":"0.0-2.0-0.56"},{"rt":994,"stimulus":"images/Boat/With_Backgrounds/difficulty0_image1.png","response":0,"category":"Boat","background_difficulty":"0","image_path":"images/Boat/With_Backgrounds/difficulty0_image1.png","trial_type":"image-button-response","trial_index":59,"time_elapsed":78685,"internal_node_id":"0.0-2.0-0.57"},{"rt":1446,"stimulus":"images/Broccoli/With_Backgrounds/difficulty5_image8.png","response":1,"category":"Broccoli","background_difficulty":"5","image_path":"images/Broccoli/With_Backgrounds/difficulty5_image8.png","trial_type":"image-button-response","trial_index":60,"time_elapsed":80132,"internal_node_id":"0.0-2.0-0.58"},{"rt":887,"stimulus":"images/Boat/With_Backgrounds/difficulty6_image8.png","response":0,"category":"Boat","background_difficulty":"6","image_path":"images/Boat/With_Backgrounds/difficulty6_image8.png","trial_type":"image-button-response","trial_index":61,"time_elapsed":81022,"internal_node_id":"0.0-2.0-0.59"},{"rt":877,"stimulus":"images/Human/With_Backgrounds/difficulty8_image2.png","response":5,"category":"Human","background_difficulty":"8","image_path":"images/Human/With_Backgrounds/difficulty8_image2.png","trial_type":"image-button-response","trial_index":62,"time_elapsed":81901,"internal_node_id":"0.0-2.0-0.60"},{"rt":984,"stimulus":"images/Other/With_Backgrounds/difficulty4_image2.png","response":7,"category":"Other","background_difficulty":"4","image_path":"images/Other/With_Backgrounds/difficulty4_image2.png","trial_type":"image-button-response","trial_index":63,"time_elapsed":82886,"internal_node_id":"0.0-2.0-0.61"},{"rt":1061,"stimulus":"images/Broccoli/With_Backgrounds/difficulty1_image3.png","response":1,"category":"Broccoli","background_difficulty":"1","image_path":"images/Broccoli/With_Backgrounds/difficulty1_image3.png","trial_type":"image-button-response","trial_index":64,"time_elapsed":83949,"internal_node_id":"0.0-2.0-0.62"},{"rt":958,"stimulus":"images/Other/With_Backgrounds/difficulty1_image1.png","response":7,"category":"Other","background_difficulty":"1","image_path":"images/Other/With_Backgrounds/difficulty1_image1.png","trial_type":"image-button-response","trial_index":65,"time_elapsed":84909,"internal_node_id":"0.0-2.0-0.63"},{"rt":1519,"stimulus":"images/Tree/With_Backgrounds/difficulty4_image2.png","response":6,"category":"Tree","background_difficulty":"4","image_path":"images/Tree/With_Backgrounds/difficulty4_image2.png","trial_type":"image-button-response","trial_index":66,"time_elapsed":86430,"internal_node_id":"0.0-2.0-0.64"},{"rt":1816,"stimulus":"images/Car/With_Backgrounds/difficulty6_image9.png","response":2,"category":"Car","background_difficulty":"6","image_path":"images/Car/With_Backgrounds/difficulty6_image9.png","trial_type":"image-button-response","trial_index":67,"time_elapsed":88248,"internal_node_id":"0.0-2.0-0.65"},{"rt":834,"stimulus":"images/Human/With_Backgrounds/difficulty5_image9.png","response":5,"category":"Human","background_difficulty":"5","image_path":"images/Human/With_Backgrounds/difficulty5_image9.png","trial_type":"image-button-response","trial_index":68,"time_elapsed":89084,"internal_node_id":"0.0-2.0-0.66"},{"rt":913,"stimulus":"images/Human/With_Backgrounds/difficulty3_image7.png","response":5,"category":"Human","background_difficulty":"3","image_path":"images/Human/With_Backgrounds/difficulty3_image7.png","trial_type":"image-button-response","trial_index":69,"time_elapsed":89998,"internal_node_id":"0.0-2.0-0.67"},{"rt":926,"stimulus":"images/Human/With_Backgrounds/difficulty6_image8.png","response":5,"category":"Human","background_difficulty":"6","image_path":"images/Human/With_Backgrounds/difficulty6_image8.png","trial_type":"image-button-response","trial_index":70,"time_elapsed":90928,"internal_node_id":"0.0-2.0-0.68"},{"rt":1025,"stimulus":"images/Car/With_Backgrounds/difficulty1_image6.png","response":2,"category":"Car","background_difficulty":"1","image_path":"images/Car/With_Backgrounds/difficulty1_image6.png","trial_type":"image-button-response","trial_index":71,"time_elapsed":91955,"internal_node_id":"0.0-2.0-0.69"},{"rt":901,"stimulus":"images/Cat/With_Backgrounds/difficulty0_image1.png","response":3,"category":"Cat","background_difficulty":"0","image_path":"images/Cat/With_Backgrounds/difficulty0_image1.png","trial_type":"image-button-response","trial_index":72,"time_elapsed":92858,"internal_node_id":"0.0-2.0-0.70"},{"rt":1410,"stimulus":"images/Boat/With_Backgrounds/difficulty2_image9.png","response":0,"category":"Boat","background_difficulty":"2","image_path":"images/Boat/With_Backgrounds/difficulty2_image9.png","trial_type":"image-button-response","trial_index":73,"time_elapsed":94269,"internal_node_id":"0.0-2.0-0.71"},{"rt":1031,"stimulus":["<h2>Press the button below to end experiment.</h2><p>Thank you for participating!</p>"],"response":0,"trial_type":"html-button-response","trial_index":74,"time_elapsed":95302,"internal_node_id":"0.0-3.0"}]