[{"success":true,"timeout":false,"failed_images":[],"failed_audio":[],"failed_video":[],"trial_type":"preload","trial_index":0,"time_elapsed":1034,"internal_node_id":"0.0-0.0"},{"rt":5594,"stimulus":["<h2>Noisy background image classification</h2><p>In this experiment you will briefly see images on top of colored squares of various sizes.</p><p>Your task is to report what each image is, selecting \"None of the Above\" if none of the given options are correct.</p> <p>The possible options are <strong>Boat</strong>, <strong>Broccoli</strong>, <strong>Car</strong>, <strong>Cat</strong>, <strong>Dog</strong>, <strong>Human</strong>, <strong>Tree</strong>, and <strong>None of the Above</strong>"],"response":0,"trial_type":"html-button-response","trial_index":1,"time_elapsed":6633,"internal_node_id":"0.0-1.0"},{"rt":3462,"stimulus":"images/Human/With_Backgrounds/difficulty3_image9.png","response":5,"category":"Human","background_difficulty":"3","image_path":"images/Human/With_Backgrounds/difficulty3_image9.png","trial_type":"image-button-response","trial_index":2,"time_elapsed":10110,"internal_node_id":"0.0-2.0-0.0"},{"rt":4541,"stimulus":"images/Other/With_Backgrounds/difficulty3_image6.png","response":7,"category":"Other","background_difficulty":"3","image_path":"images/Other/With_Backgrounds/difficulty3_image6.png","trial_type":"image-button-response","trial_index":3,"time_elapsed":14661,"internal_node_id":"0.0-2.0-0.1"},{"rt":2852,"stimulus":"images/Other/With_Backgrounds/difficulty6_image7.png","response":7,"category":"Other","background_difficulty":"6","image_path":"images/Other/With_Backgrounds/difficulty6_image7.png","trial_type":"image-button-response","trial_index":4,"time_elapsed":17526,"internal_node_id":"0.0-2.0-0.2"},{"rt":2307,"stimulus":"images/Boat/With_Backgrounds/difficulty6_image4.png","response":0,"category":"Boat","background_difficulty":"6","image_path":"images/Boat/With_Backgrounds/difficulty6_image4.png","trial_type":"image-button-response","trial_index":5,"time_elapsed":19844,"internal_node_id":"0.0-2.0-0.3"},{"rt":1638,"stimulus":"images/Dog/With_Backgrounds/difficulty7_image0.png","response":4,"category":"Dog","background_difficulty":"7","image_path":"images/Dog/With_Backgrounds/difficulty7_image0.png","trial_type":"image-button-response","trial_index":6,"time_elapsed":21493,"internal_node_id":"0.0-2.0-0.4"},{"rt":2410,"stimulus":"images/Car/With_Backgrounds/difficulty4_image4.png","response":2,"category":"Car","background_difficulty":"4","image_path":"images/Car/With_Backgrounds/difficulty4_image4.png","trial_type":"image-button-response","trial_index":7,"time_elapsed":23912,"internal_node_id":"0.0-2.0-0.5"},{"rt":1471,"stimulus":"images/Tree/With_Backgrounds/difficulty4_image0.png","response":6,"category":"Tree","background_difficulty":"4","image_path":"images/Tree/With_Backgrounds/difficulty4_image0.png","trial_type":"image-button-response","trial_index":8,"time_elapsed":25394,"internal_node_id":"0.0-2.0-0.6"},{"rt":1691,"stimulus":"images/Broccoli/With_Backgrounds/difficulty5_image6.png","response":1,"category":"Broccoli","background_difficulty":"5","image_path":"images/Broccoli/With_Backgrounds/difficulty5_image6.png","trial_type":"image-button-response","trial_index":9,"time_elapsed":27096,"internal_node_id":"0.0-2.0-0.7"},{"rt":1806,"stimulus":"images/Car/With_Backgrounds/difficulty3_image0.png","response":2,"category":"Car","background_difficulty":"3","image_path":"images/Car/With_Backgrounds/difficulty3_image0.png","trial_type":"image-button-response","trial_index":10,"time_elapsed":28912,"internal_node_id":"0.0-2.0-0.8"},{"rt":1484,"stimulus":"images/Cat/With_Backgrounds/difficulty5_image1.png","response":3,"category":"Cat","background_difficulty":"5","image_path":"images/Cat/With_Backgrounds/difficulty5_image1.png","trial_type":"image-button-response","trial_index":11,"time_elapsed":30413,"internal_node_id":"0.0-2.0-0.9"},{"rt":1439,"stimulus":"images/Dog/With_Backgrounds/difficulty3_image7.png","response":4,"category":"Dog","background_difficulty":"3","image_path":"images/Dog/With_Backgrounds/difficulty3_image7.png","trial_type":"image-button-response","trial_index":12,"time_elapsed":31863,"internal_node_id":"0.0-2.0-0.10"},{"rt":1239,"stimulus":"images/Dog/With_Backgrounds/difficulty4_image2.png","response":4,"category":"Dog","background_difficulty":"4","image_path":"images/Dog/With_Backgrounds/difficulty4_image2.png","trial_type":"image-button-response","trial_index":13,"time_elapsed":33112,"internal_node_id":"0.0-2.0-0.11"},{"rt":1221,"stimulus":"images/Human/With_Backgrounds/difficulty2_image2.png","response":5,"category":"Human","background_difficulty":"2","image_path":"images/Human/With_Backgrounds/difficulty2_image2.png","trial_type":"image-button-response","trial_index":14,"time_elapsed":34346,"internal_node_id":"0.0-2.0-0.12"},{"rt":2805,"stimulus":"images/Other/With_Backgrounds/difficulty1_image1.png","response":7,"category":"Other","background_difficulty":"1","image_path":"images/Other/With_Backgrounds/difficulty1_image1.png","trial_type":"image-button-response","trial_index":15,"time_elapsed":37163,"internal_node_id":"0.0-2.0-0.13"},{"rt":1956,"stimulus":"images/Tree/With_Backgrounds/difficulty1_image6.png","response":6,"category":"Tree","background_difficulty":"1","image_path":"images/Tree/With_Backgrounds/difficulty1_image6.png","trial_type":"image-button-response","trial_index":16,"time_elapsed":39129,"internal_node_id":"0.0-2.0-0.14"},{"rt":1538,"stimulus":"images/Dog/With_Backgrounds/difficulty8_image6.png","response":4,"category":"Dog","background_difficulty":"8","image_path":"images/Dog/With_Backgrounds/difficulty8_image6.png","trial_type":"image-button-response","trial_index":17,"time_elapsed":40678,"internal_node_id":"0.0-2.0-0.15"},{"rt":1588,"stimulus":"images/Boat/With_Backgrounds/difficulty8_image9.png","response":0,"category":"Boat","background_difficulty":"8","image_path":"images/Boat/With_Backgrounds/difficulty8_image9.png","trial_type":"image-button-response","trial_index":18,"time_elapsed":42280,"internal_node_id":"0.0-2.0-0.16"},{"rt":2241,"stimulus":"images/Other/With_Backgrounds/difficulty4_image0.png","response":7,"category":"Other","background_difficulty":"4","image_path":"images/Other/With_Backgrounds/difficulty4_image0.png","trial_type":"image-button-response","trial_index":19,"time_elapsed":44531,"internal_node_id":"0.0-2.0-0.17"},{"rt":1721,"stimulus":"images/Tree/With_Backgrounds/difficulty0_image8.png","response":6,"category":"Tree","background_difficulty":"0","image_path":"images/Tree/With_Backgrounds/difficulty0_image8.png","trial_type":"image-button-response","trial_index":20,"time_elapsed":46263,"internal_node_id":"0.0-2.0-0.18"},{"rt":1274,"stimulus":"images/Broccoli/With_Backgrounds/difficulty2_image7.png","response":1,"category":"Broccoli","background_difficulty":"2","image_path":"images/Broccoli/With_Backgrounds/difficulty2_image7.png","trial_type":"image-button-response","trial_index":21,"time_elapsed":47546,"internal_node_id":"0.0-2.0-0.19"},{"rt":2307,"stimulus":"images/Cat/With_Backgrounds/difficulty0_image2.png","response":3,"category":"Cat","background_difficulty":"0","image_path":"images/Cat/With_Backgrounds/difficulty0_image2.png","trial_type":"image-button-response","trial_index":22,"time_elapsed":49864,"internal_node_id":"0.0-2.0-0.20"},{"rt":1339,"stimulus":"images/Cat/With_Backgrounds/difficulty6_image8.png","response":3,"category":"Cat","background_difficulty":"6","image_path":"images/Cat/With_Backgrounds/difficulty6_image8.png","trial_type":"image-button-response","trial_index":23,"time_elapsed":51214,"internal_node_id":"0.0-2.0-0.21"},{"rt":1371,"stimulus":"images/Human/With_Backgrounds/difficulty4_image6.png","response":5,"category":"Human","background_difficulty":"4","image_path":"images/Human/With_Backgrounds/difficulty4_image6.png","trial_type":"image-button-response","trial_index":24,"time_elapsed":52598,"internal_node_id":"0.0-2.0-0.22"},{"rt":1338,"stimulus":"images/Cat/With_Backgrounds/difficulty3_image7.png","response":3,"category":"Cat","background_difficulty":"3","image_path":"images/Cat/With_Backgrounds/difficulty3_image7.png","trial_type":"image-button-response","trial_index":25,"time_elapsed":53948,"internal_node_id":"0.0-2.0-0.23"},{"rt":1306,"stimulus":"images/Cat/With_Backgrounds/difficulty4_image3.png","response":3,"category":"Cat","background_difficulty":"4","image_path":"images/Cat/With_Backgrounds/difficulty4_image3.png","trial_type":"image-button-response","trial_index":26,"time_elapsed":55264,"internal_node_id":"0.0-2.0-0.24"},{"rt":1729,"stimulus":"images/Tree/With_Backgrounds/difficulty2_image3.png","response":6,"category":"Tree","background_difficulty":"2","image_path":"images/Tree/With_Backgrounds/difficulty2_image3.png","trial_type":"image-button-response","trial_index":27,"time_elapsed":57002,"internal_node_id":"0.0-2.0-0.25"},{"rt":1872,"stimulus":"images/Boat/With_Backgrounds/difficulty7_image2.png","response":0,"category":"Boat","background_difficulty":"7","image_path":"images/Boat/With_Backgrounds/difficulty7_image2.png","trial_type":"image-button-response","trial_index":28,"time_elapsed":58883,"internal_node_id":"0.0-2.0-0.26"},{"rt":1241,"stimulus":"images/Boat/With_Backgrounds/difficulty1_image1.png","response":0,"category":"Boat","background_difficulty":"1","image_path":"images/Boat/With_Backgrounds/difficulty1_image1.png","trial_type":"image-button-response","trial_index":29,"time_elapsed":60133,"internal_node_id":"0.0-2.0-0.27"},{"rt":1289,"stimulus":"images/Human/With_Backgrounds/difficulty5_image3.png","response":5,"category":"Human","background_difficulty":"5","image_path":"images/Human/With_Backgrounds/difficulty5_image3.png","trial_type":"image-button-response","trial_index":30,"time_elapsed":61433,"internal_node_id":"0.0-2.0-0.28"},{"rt":2091,"stimulus":"images/Boat/With_Backgrounds/difficulty4_image7.png","response":0,"category":"Boat","background_difficulty":"4","image_path":"images/Boat/With_Backgrounds/difficulty4_image7.png","trial_type":"image-button-response","trial_index":31,"time_elapsed":63534,"internal_node_id":"0.0-2.0-0.29"},{"rt":3989,"stimulus":"images/Car/With_Backgrounds/difficulty1_image1.png","response":2,"category":"Car","background_difficulty":"1","image_path":"images/Car/With_Backgrounds/difficulty1_image1.png","trial_type":"image-button-response","trial_index":32,"time_elapsed":67536,"internal_node_id":"0.0-2.0-0.30"},{"rt":2877,"stimulus":"images/Cat/With_Backgrounds/difficulty8_image0.png","response":3,"category":"Cat","background_difficulty":"8","image_path":"images/Cat/With_Backgrounds/difficulty8_image0.png","trial_type":"image-button-response","trial_index":33,"time_elapsed":70425,"internal_node_id":"0.0-2.0-0.31"},{"rt":2229,"stimulus":"images/Other/With_Backgrounds/difficulty0_image4.png","response":7,"category":"Other","background_difficulty":"0","image_path":"images/Other/With_Backgrounds/difficulty0_image4.png","trial_type":"image-button-response","trial_index":34,"time_elapsed":72670,"internal_node_id":"0.0-2.0-0.32"},{"rt":1574,"stimulus":"images/Cat/With_Backgrounds/difficulty2_image6.png","response":3,"category":"Cat","background_difficulty":"2","image_path":"images/Cat/With_Backgrounds/difficulty2_image6.png","trial_type":"image-button-response","trial_index":35,"time_elapsed":74253,"internal_node_id":"0.0-2.0-0.33"},{"rt":1287,"stimulus":"images/Broccoli/With_Backgrounds/difficulty4_image2.png","response":1,"category":"Broccoli","background_difficulty":"4","image_path":"images/Broccoli/With_Backgrounds/difficulty4_image2.png","trial_type":"image-button-response","trial_index":36,"time_elapsed":75552,"internal_node_id":"0.0-2.0-0.34"},{"rt":1891,"stimulus":"images/Boat/With_Backgrounds/difficulty0_image3.png","response":0,"category":"Boat","background_difficulty":"0","image_path":"images/Boat/With_Backgrounds/difficulty0_image3.png","trial_type":"image-button-response","trial_index":37,"time_elapsed":77453,"internal_node_id":"0.0-2.0-0.35"},{"rt":1790,"stimulus":"images/Car/With_Backgrounds/difficulty2_image7.png","response":2,"category":"Car","background_difficulty":"2","image_path":"images/Car/With_Backgrounds/difficulty2_image7.png","trial_type":"image-button-response","trial_index":38,"time_elapsed":79252,"internal_node_id":"0.0-2.0-0.36"},{"rt":1326,"stimulus":"images/Human/With_Backgrounds/difficulty8_image7.png","response":5,"category":"Human","background_difficulty":"8","image_path":"images/Human/With_Backgrounds/difficulty8_image7.png","trial_type":"image-button-response","trial_index":39,"time_elapsed":80590,"internal_node_id":"0.0-2.0-0.37"},{"rt":1729,"stimulus":"images/Other/With_Backgrounds/difficulty5_image8.png","response":7,"category":"Other","background_difficulty":"5","image_path":"images/Other/With_Backgrounds/difficulty5_image8.png","trial_type":"image-button-response","trial_index":40,"time_elapsed":82328,"internal_node_id":"0.0-2.0-0.38"},{"rt":1289,"stimulus":"images/Human/With_Backgrounds/difficulty1_image8.png","response":5,"category":"Human","background_difficulty":"1","image_path":"images/Human/With_Backgrounds/difficulty1_image8.png","trial_type":"image-button-response","trial_index":41,"time_elapsed":83627,"internal_node_id":"0.0-2.0-0.39"},{"rt":1308,"stimulus":"images/Broccoli/With_Backgrounds/difficulty3_image9.png","response":1,"category":"Broccoli","background_difficulty":"3","image_path":"images/Broccoli/With_Backgrounds/difficulty3_image9.png","trial_type":"image-button-response","trial_index":42,"time_elapsed":84943,"internal_node_id":"0.0-2.0-0.40"},{"rt":4488,"stimulus":"images/Human/With_Backgrounds/difficulty6_image5.png","response":5,"category":"Human","background_difficulty":"6","image_path":"images/Human/With_Backgrounds/difficulty6_image5.png","trial_type":"image-button-response","trial_index":43,"time_elapsed":89444,"internal_node_id":"0.0-2.0-0.41"},{"rt":3223,"stimulus":"images/Cat/With_Backgrounds/difficulty7_image4.png","response":3,"category":"Cat","background_difficulty":"7","image_path":"images/Cat/With_Backgrounds/difficulty7_image4.png","trial_type":"image-button-response","trial_index":44,"time_elapsed":92678,"internal_node_id":"0.0-2.0-0.42"},{"rt":1292,"stimulus":"images/Boat/With_Backgrounds/difficulty5_image0.png","response":0,"category":"Boat","background_difficulty":"5","image_path":"images/Boat/With_Backgrounds/difficulty5_image0.png","trial_type":"image-button-response","trial_index":45,"time_elapsed":93978,"internal_node_id":"0.0-2.0-0.43"},{"rt":1622,"stimulus":"images/Other/With_Backgrounds/difficulty2_image3.png","response":7,"category":"Other","background_difficulty":"2","image_path":"images/Other/With_Backgrounds/difficulty2_image3.png","trial_type":"image-button-response","trial_index":46,"time_elapsed":95611,"internal_node_id":"0.0-2.0-0.44"},{"rt":1423,"stimulus":"images/Dog/With_Backgrounds/difficulty2_image1.png","response":4,"category":"Dog","background_difficulty":"2","image_path":"images/Dog/With_Backgrounds/difficulty2_image1.png","trial_type":"image-button-response","trial_index":47,"time_elapsed":97044,"internal_node_id":"0.0-2.0-0.45"},{"rt":1572,"stimulus":"images/Tree/With_Backgrounds/difficulty8_image1.png","response":6,"category":"Tree","background_difficulty":"8","image_path":"images/Tree/With_Backgrounds/difficulty8_image1.png","trial_type":"image-button-response","trial_index":48,"time_elapsed":98628,"internal_node_id":"0.0-2.0-0.46"},{"rt":1442,"stimulus":"images/Cat/With_Backgrounds/difficulty1_image5.png","response":3,"category":"Cat","background_difficulty":"1","image_path":"images/Cat/With_Backgrounds/difficulty1_image5.png","trial_type":"image-button-response","trial_index":49,"time_elapsed":100078,"internal_node_id":"0.0-2.0-0.47"},{"rt":1242,"stimulus":"images/Human/With_Backgrounds/difficulty0_image4.png","response":5,"category":"Human","background_difficulty":"0","image_path":"images/Human/With_Backgrounds/difficulty0_image4.png","trial_type":"image-button-response","trial_index":50,"time_elapsed":101328,"internal_node_id":"0.0-2.0-0.48"},{"rt":1305,"stimulus":"images/Dog/With_Backgrounds/difficulty1_image5.png","response":4,"category":"Dog","background_difficulty":"1","image_path":"images/Dog/With_Backgrounds/difficulty1_image5.png","trial_type":"image-button-response","trial_index":51,"time_elapsed":102644,"internal_node_id":"0.0-2.0-0.49"},{"rt":1322,"stimulus":"images/Broccoli/With_Backgrounds/difficulty7_image5.png","response":1,"category":"Broccoli","background_difficulty":"7","image_path":"images/Broccoli/With_Backgrounds/difficulty7_image5.png","trial_type":"image-button-response","trial_index":52,"time_elapsed":103978,"internal_node_id":"0.0-2.0-0.50"},{"rt":1506,"stimulus":"images/Car/With_Backgrounds/difficulty6_image5.png","response":2,"category":"Car","background_difficulty":"6","image_path":"images/Car/With_Backgrounds/difficulty6_image5.png","trial_type":"image-button-response","trial_index":53,"time_elapsed":105494,"internal_node_id":"0.0-2.0-0.51"},{"rt":1537,"stimulus":"images/Tree/With_Backgrounds/difficulty3_image5.png","response":6,"category":"Tree","background_difficulty":"3","image_path":"images/Tree/With_Backgrounds/difficulty3_image5.png","trial_type":"image-button-response","trial_index":54,"time_elapsed":107044,"internal_node_id":"0.0-2.0-0.52"},{"rt":1339,"stimulus":"images/Tree/With_Backgrounds/difficulty6_image7.png","response":6,"category":"Tree","background_difficulty":"6","image_path":"images/Tree/With_Backgrounds/difficulty6_image7.png","trial_type":"image-button-response","trial_index":55,"time_elapsed":108395,"internal_node_id":"0.0-2.0-0.53"},{"rt":1306,"stimulus":"images/Broccoli/With_Backgrounds/difficulty1_image4.png","response":1,"category":"Broccoli","background_difficulty":"1","image_path":"images/Broccoli/With_Backgrounds/difficulty1_image4.png","trial_type":"image-button-response","trial_index":56,"time_elapsed":109711,"internal_node_id":"0.0-2.0-0.54"},{"rt":1538,"stimulus":"images/Other/With_Backgrounds/difficulty8_image2.png","response":7,"category":"Other","background_difficulty":"8","image_path":"images/Other/With_Backgrounds/difficulty8_image2.png","trial_type":"image-button-response","trial_index":57,"time_elapsed":111262,"internal_node_id":"0.0-2.0-0.55"},{"rt":2692,"stimulus":"images/Boat/With_Backgrounds/difficulty2_image5.png","response":0,"category":"Boat","background_difficulty":"2","image_path":"images/Boat/With_Backgrounds/difficulty2_image5.png","trial_type":"image-button-response","trial_index":58,"time_elapsed":113962,"internal_node_id":"0.0-2.0-0.56"},{"rt":1191,"stimulus":"images/Boat/With_Backgrounds/difficulty3_image8.png","response":0,"category":"Boat","background_difficulty":"3","image_path":"images/Boat/With_Backgrounds/difficulty3_image8.png","trial_type":"image-button-response","trial_index":59,"time_elapsed":115162,"internal_node_id":"0.0-2.0-0.57"},{"rt":3358,"stimulus":"images/Car/With_Backgrounds/difficulty7_image9.png","response":2,"category":"Car","background_difficulty":"7","image_path":"images/Car/With_Backgrounds/difficulty7_image9.png","trial_type":"image-button-response","trial_index":60,"time_elapsed":118531,"internal_node_id":"0.0-2.0-0.58"},{"rt":1739,"stimulus":"images/Dog/With_Backgrounds/difficulty5_image3.png","response":4,"category":"Dog","background_difficulty":"5","image_path":"images/Dog/With_Backgrounds/difficulty5_image3.png","trial_type":"image-button-response","trial_index":61,"time_elapsed":120280,"internal_node_id":"0.0-2.0-0.59"},{"rt":1559,"stimulus":"images/Car/With_Backgrounds/difficulty0_image2.png","response":2,"category":"Car","background_difficulty":"0","image_path":"images/Car/With_Backgrounds/difficulty0_image2.png","trial_type":"image-button-response","trial_index":62,"time_elapsed":121847,"internal_node_id":"0.0-2.0-0.60"},{"rt":1455,"stimulus":"images/Human/With_Backgrounds/difficulty7_image0.png","response":5,"category":"Human","background_difficulty":"7","image_path":"images/Human/With_Backgrounds/difficulty7_image0.png","trial_type":"image-button-response","trial_index":63,"time_elapsed":123314,"internal_node_id":"0.0-2.0-0.61"},{"rt":1522,"stimulus":"images/Other/With_Backgrounds/difficulty7_image5.png","response":7,"category":"Other","background_difficulty":"7","image_path":"images/Other/With_Backgrounds/difficulty7_image5.png","trial_type":"image-button-response","trial_index":64,"time_elapsed":124847,"internal_node_id":"0.0-2.0-0.62"},{"rt":2474,"stimulus":"images/Broccoli/With_Backgrounds/difficulty6_image0.png","response":1,"category":"Broccoli","background_difficulty":"6","image_path":"images/Broccoli/With_Backgrounds/difficulty6_image0.png","trial_type":"image-button-response","trial_index":65,"time_elapsed":127331,"internal_node_id":"0.0-2.0-0.63"},{"rt":1424,"stimulus":"images/Broccoli/With_Backgrounds/difficulty0_image3.png","response":1,"category":"Broccoli","background_difficulty":"0","image_path":"images/Broccoli/With_Backgrounds/difficulty0_image3.png","trial_type":"image-button-response","trial_index":66,"time_elapsed":128764,"internal_node_id":"0.0-2.0-0.64"},{"rt":1258,"stimulus":"images/Dog/With_Backgrounds/difficulty0_image4.png","response":4,"category":"Dog","background_difficulty":"0","image_path":"images/Dog/With_Backgrounds/difficulty0_image4.png","trial_type":"image-button-response","trial_index":67,"time_elapsed":130032,"internal_node_id":"0.0-2.0-0.65"},{"rt":1072,"stimulus":"images/Broccoli/With_Backgrounds/difficulty8_image8.png","response":1,"category":"Broccoli","background_difficulty":"8","image_path":"images/Broccoli/With_Backgrounds/difficulty8_image8.png","trial_type":"image-button-response","trial_index":68,"time_elapsed":131116,"internal_node_id":"0.0-2.0-0.66"},{"rt":1505,"stimulus":"images/Car/With_Backgrounds/difficulty8_image8.png","response":2,"category":"Car","background_difficulty":"8","image_path":"images/Car/With_Backgrounds/difficulty8_image8.png","trial_type":"image-button-response","trial_index":69,"time_elapsed":132632,"internal_node_id":"0.0-2.0-0.67"},{"rt":1441,"stimulus":"images/Tree/With_Backgrounds/difficulty5_image9.png","response":6,"category":"Tree","background_difficulty":"5","image_path":"images/Tree/With_Backgrounds/difficulty5_image9.png","trial_type":"image-button-response","trial_index":70,"time_elapsed":134082,"internal_node_id":"0.0-2.0-0.68"},{"rt":1374,"stimulus":"images/Dog/With_Backgrounds/difficulty6_image8.png","response":4,"category":"Dog","background_difficulty":"6","image_path":"images/Dog/With_Backgrounds/difficulty6_image8.png","trial_type":"image-button-response","trial_index":71,"time_elapsed":135466,"internal_node_id":"0.0-2.0-0.69"},{"rt":1390,"stimulus":"images/Tree/With_Backgrounds/difficulty7_image2.png","response":6,"category":"Tree","background_difficulty":"7","image_path":"images/Tree/With_Backgrounds/difficulty7_image2.png","trial_type":"image-button-response","trial_index":72,"time_elapsed":136866,"internal_node_id":"0.0-2.0-0.70"},{"rt":1425,"stimulus":"images/Car/With_Backgrounds/difficulty5_image3.png","response":2,"category":"Car","background_difficulty":"5","image_path":"images/Car/With_Backgrounds/difficulty5_image3.png","trial_type":"image-button-response","trial_index":73,"time_elapsed":138300,"internal_node_id":"0.0-2.0-0.71"},{"rt":1265,"stimulus":["<h2>Press the button below to end experiment.</h2><p>Thank you for participating!</p>"],"response":0,"trial_type":"html-button-response","trial_index":74,"time_elapsed":139567,"internal_node_id":"0.0-3.0"}]