[{"success":true,"timeout":false,"failed_images":[],"failed_audio":[],"failed_video":[],"trial_type":"preload","trial_index":0,"time_elapsed":867,"internal_node_id":"0.0-0.0"},{"rt":1152,"stimulus":["<h2>Noisy background image classification</h2><p>In this experiment you will briefly see images on top of colored squares of various sizes.</p><p>Your task is to report what each image is, selecting \"None of the Above\" if none of the given options are correct.</p> <p>The possible options are <strong>Boat</strong>, <strong>Broccoli</strong>, <strong>Car</strong>, <strong>Cat</strong>, <strong>Dog</strong>, <strong>Human</strong>, <strong>Tree</strong>, and <strong>None of the Above</strong>"],"response":0,"trial_type":"html-button-response","trial_index":1,"time_elapsed":2020,"internal_node_id":"0.0-1.0"},{"rt":1827,"stimulus":"images/Broccoli/With_Backgrounds/difficulty6_image7.png","response":1,"category":"Broccoli","background_difficulty":"6","image_path":"images/Broccoli/With_Backgrounds/difficulty6_image7.png","trial_type":"image-button-response","trial_index":2,"time_elapsed":3852,"internal_node_id":"0.0-2.0-0.0"},{"rt":4377,"stimulus":"images/Other/With_Backgrounds/difficulty4_image4.png","response":7,"category":"Other","background_difficulty":"4","image_path":"images/Other/With_Backgrounds/difficulty4_image4.png","trial_type":"image-button-response","trial_index":3,"time_elapsed":8235,"internal_node_id":"0.0-2.0-0.1"},{"rt":1462,"stimulus":"images/Broccoli/With_Backgrounds/difficulty5_image9.png","response":1,"category":"Broccoli","background_difficulty":"5","image_path":"images/Broccoli/With_Backgrounds/difficulty5_image9.png","trial_type":"image-button-response","trial_index":4,"time_elapsed":9701,"internal_node_id":"0.0-2.0-0.2"},{"rt":2215,"stimulus":"images/Cat/With_Backgrounds/difficulty1_image7.png","response":3,"category":"Cat","background_difficulty":"1","image_path":"images/Cat/With_Backgrounds/difficulty1_image7.png","trial_type":"image-button-response","trial_index":5,"time_elapsed":11919,"internal_node_id":"0.0-2.0-0.3"},{"rt":1730,"stimulus":"images/Car/With_Backgrounds/difficulty6_image3.png","response":2,"category":"Car","background_difficulty":"6","image_path":"images/Car/With_Backgrounds/difficulty6_image3.png","trial_type":"image-button-response","trial_index":6,"time_elapsed":13653,"internal_node_id":"0.0-2.0-0.4"},{"rt":1708,"stimulus":"images/Tree/With_Backgrounds/difficulty7_image7.png","response":6,"category":"Tree","background_difficulty":"7","image_path":"images/Tree/With_Backgrounds/difficulty7_image7.png","trial_type":"image-button-response","trial_index":7,"time_elapsed":15365,"internal_node_id":"0.0-2.0-0.5"},{"rt":1689,"stimulus":"images/Broccoli/With_Backgrounds/difficulty2_image6.png","response":1,"category":"Broccoli","background_difficulty":"2","image_path":"images/Broccoli/With_Backgrounds/difficulty2_image6.png","trial_type":"image-button-response","trial_index":8,"time_elapsed":17059,"internal_node_id":"0.0-2.0-0.6"},{"rt":1976,"stimulus":"images/Tree/With_Backgrounds/difficulty0_image0.png","response":6,"category":"Tree","background_difficulty":"0","image_path":"images/Tree/With_Backgrounds/difficulty0_image0.png","trial_type":"image-button-response","trial_index":9,"time_elapsed":19040,"internal_node_id":"0.0-2.0-0.7"},{"rt":1950,"stimulus":"images/Car/With_Backgrounds/difficulty5_image2.png","response":2,"category":"Car","background_difficulty":"5","image_path":"images/Car/With_Backgrounds/difficulty5_image2.png","trial_type":"image-button-response","trial_index":10,"time_elapsed":20993,"internal_node_id":"0.0-2.0-0.8"},{"rt":2052,"stimulus":"images/Human/With_Backgrounds/difficulty5_image4.png","response":5,"category":"Human","background_difficulty":"5","image_path":"images/Human/With_Backgrounds/difficulty5_image4.png","trial_type":"image-button-response","trial_index":11,"time_elapsed":23047,"internal_node_id":"0.0-2.0-0.9"},{"rt":1868,"stimulus":"images/Tree/With_Backgrounds/difficulty1_image2.png","response":6,"category":"Tree","background_difficulty":"1","image_path":"images/Tree/With_Backgrounds/difficulty1_image2.png","trial_type":"image-button-response","trial_index":12,"time_elapsed":24919,"internal_node_id":"0.0-2.0-0.10"},{"rt":1618,"stimulus":"images/Cat/With_Backgrounds/difficulty4_image2.png","response":3,"category":"Cat","background_difficulty":"4","image_path":"images/Cat/With_Backgrounds/difficulty4_image2.png","trial_type":"image-button-response","trial_index":13,"time_elapsed":26542,"internal_node_id":"0.0-2.0-0.11"},{"rt":1724,"stimulus":"images/Cat/With_Backgrounds/difficulty6_image6.png","response":3,"category":"Cat","background_difficulty":"6","image_path":"images/Cat/With_Backgrounds/difficulty6_image6.png","trial_type":"image-button-response","trial_index":14,"time_elapsed":28269,"internal_node_id":"0.0-2.0-0.12"},{"rt":1544,"stimulus":"images/Human/With_Backgrounds/difficulty6_image5.png","response":5,"category":"Human","background_difficulty":"6","image_path":"images/Human/With_Backgrounds/difficulty6_image5.png","trial_type":"image-button-response","trial_index":15,"time_elapsed":29816,"internal_node_id":"0.0-2.0-0.13"},{"rt":1490,"stimulus":"images/Dog/With_Backgrounds/difficulty4_image2.png","response":4,"category":"Dog","background_difficulty":"4","image_path":"images/Dog/With_Backgrounds/difficulty4_image2.png","trial_type":"image-button-response","trial_index":16,"time_elapsed":31308,"internal_node_id":"0.0-2.0-0.14"},{"rt":1457,"stimulus":"images/Dog/With_Backgrounds/difficulty6_image3.png","response":4,"category":"Dog","background_difficulty":"6","image_path":"images/Dog/With_Backgrounds/difficulty6_image3.png","trial_type":"image-button-response","trial_index":17,"time_elapsed":32771,"internal_node_id":"0.0-2.0-0.15"},{"rt":1417,"stimulus":"images/Tree/With_Backgrounds/difficulty4_image9.png","response":6,"category":"Tree","background_difficulty":"4","image_path":"images/Tree/With_Backgrounds/difficulty4_image9.png","trial_type":"image-button-response","trial_index":18,"time_elapsed":34191,"internal_node_id":"0.0-2.0-0.16"},{"rt":1432,"stimulus":"images/Broccoli/With_Backgrounds/difficulty1_image1.png","response":1,"category":"Broccoli","background_difficulty":"1","image_path":"images/Broccoli/With_Backgrounds/difficulty1_image1.png","trial_type":"image-button-response","trial_index":19,"time_elapsed":35627,"internal_node_id":"0.0-2.0-0.17"},{"rt":1925,"stimulus":"images/Tree/With_Backgrounds/difficulty2_image8.png","response":6,"category":"Tree","background_difficulty":"2","image_path":"images/Tree/With_Backgrounds/difficulty2_image8.png","trial_type":"image-button-response","trial_index":20,"time_elapsed":37555,"internal_node_id":"0.0-2.0-0.18"},{"rt":1947,"stimulus":"images/Other/With_Backgrounds/difficulty6_image6.png","response":7,"category":"Other","background_difficulty":"6","image_path":"images/Other/With_Backgrounds/difficulty6_image6.png","trial_type":"image-button-response","trial_index":21,"time_elapsed":39506,"internal_node_id":"0.0-2.0-0.19"},{"rt":1408,"stimulus":"images/Cat/With_Backgrounds/difficulty2_image1.png","response":3,"category":"Cat","background_difficulty":"2","image_path":"images/Cat/With_Backgrounds/difficulty2_image1.png","trial_type":"image-button-response","trial_index":22,"time_elapsed":40918,"internal_node_id":"0.0-2.0-0.20"},{"rt":1597,"stimulus":"images/Other/With_Backgrounds/difficulty2_image5.png","response":7,"category":"Other","background_difficulty":"2","image_path":"images/Other/With_Backgrounds/difficulty2_image5.png","trial_type":"image-button-response","trial_index":23,"time_elapsed":42517,"internal_node_id":"0.0-2.0-0.21"},{"rt":1381,"stimulus":"images/Broccoli/With_Backgrounds/difficulty3_image4.png","response":1,"category":"Broccoli","background_difficulty":"3","image_path":"images/Broccoli/With_Backgrounds/difficulty3_image4.png","trial_type":"image-button-response","trial_index":24,"time_elapsed":43900,"internal_node_id":"0.0-2.0-0.22"},{"rt":1630,"stimulus":"images/Cat/With_Backgrounds/difficulty3_image9.png","response":3,"category":"Cat","background_difficulty":"3","image_path":"images/Cat/With_Backgrounds/difficulty3_image9.png","trial_type":"image-button-response","trial_index":25,"time_elapsed":45533,"internal_node_id":"0.0-2.0-0.23"},{"rt":1410,"stimulus":"images/Cat/With_Backgrounds/difficulty5_image0.png","response":3,"category":"Cat","background_difficulty":"5","image_path":"images/Cat/With_Backgrounds/difficulty5_image0.png","trial_type":"image-button-response","trial_index":26,"time_elapsed":46946,"internal_node_id":"0.0-2.0-0.24"},{"rt":1750,"stimulus":"images/Other/With_Backgrounds/difficulty3_image2.png","response":7,"category":"Other","background_difficulty":"3","image_path":"images/Other/With_Backgrounds/difficulty3_image2.png","trial_type":"image-button-response","trial_index":27,"time_elapsed":48700,"internal_node_id":"0.0-2.0-0.25"},{"rt":2065,"stimulus":"images/Broccoli/With_Backgrounds/difficulty7_image3.png","response":1,"category":"Broccoli","background_difficulty":"7","image_path":"images/Broccoli/With_Backgrounds/difficulty7_image3.png","trial_type":"image-button-response","trial_index":28,"time_elapsed":50768,"internal_node_id":"0.0-2.0-0.26"},{"rt":1847,"stimulus":"images/Dog/With_Backgrounds/difficulty8_image9.png","response":4,"category":"Dog","background_difficulty":"8","image_path":"images/Dog/With_Backgrounds/difficulty8_image9.png","trial_type":"image-button-response","trial_index":29,"time_elapsed":52619,"internal_node_id":"0.0-2.0-0.27"},{"rt":1696,"stimulus":"images/Human/With_Backgrounds/difficulty8_image3.png","response":5,"category":"Human","background_difficulty":"8","image_path":"images/Human/With_Backgrounds/difficulty8_image3.png","trial_type":"image-button-response","trial_index":30,"time_elapsed":54319,"internal_node_id":"0.0-2.0-0.28"},{"rt":1650,"stimulus":"images/Dog/With_Backgrounds/difficulty0_image4.png","response":4,"category":"Dog","background_difficulty":"0","image_path":"images/Dog/With_Backgrounds/difficulty0_image4.png","trial_type":"image-button-response","trial_index":31,"time_elapsed":55972,"internal_node_id":"0.0-2.0-0.29"},{"rt":1616,"stimulus":"images/Other/With_Backgrounds/difficulty0_image8.png","response":7,"category":"Other","background_difficulty":"0","image_path":"images/Other/With_Backgrounds/difficulty0_image8.png","trial_type":"image-button-response","trial_index":32,"time_elapsed":57591,"internal_node_id":"0.0-2.0-0.30"},{"rt":1490,"stimulus":"images/Tree/With_Backgrounds/difficulty6_image1.png","response":6,"category":"Tree","background_difficulty":"6","image_path":"images/Tree/With_Backgrounds/difficulty6_image1.png","trial_type":"image-button-response","trial_index":33,"time_elapsed":59084,"internal_node_id":"0.0-2.0-0.31"},{"rt":1531,"stimulus":"images/Other/With_Backgrounds/difficulty7_image7.png","response":7,"category":"Other","background_difficulty":"7","image_path":"images/Other/With_Backgrounds/difficulty7_image7.png","trial_type":"image-button-response","trial_index":34,"time_elapsed":60618,"internal_node_id":"0.0-2.0-0.32"},{"rt":2274,"stimulus":"images/Dog/With_Backgrounds/difficulty1_image5.png","response":4,"category":"Dog","background_difficulty":"1","image_path":"images/Dog/With_Backgrounds/difficulty1_image5.png","trial_type":"image-button-response","trial_index":35,"time_elapsed":62896,"internal_node_id":"0.0-2.0-0.33"},{"rt":1434,"stimulus":"images/Other/With_Backgrounds/difficulty8_image1.png","response":7,"category":"Other","background_difficulty":"8","image_path":"images/Other/With_Backgrounds/difficulty8_image1.png","trial_type":"image-button-response","trial_index":36,"time_elapsed":64332,"internal_node_id":"0.0-2.0-0.34"},{"rt":1555,"stimulus":"images/Human/With_Backgrounds/difficulty4_image2.png","response":5,"category":"Human","background_difficulty":"4","image_path":"images/Human/With_Backgrounds/difficulty4_image2.png","trial_type":"image-button-response","trial_index":37,"time_elapsed":65891,"internal_node_id":"0.0-2.0-0.35"},{"rt":1587,"stimulus":"images/Dog/With_Backgrounds/difficulty3_image6.png","response":4,"category":"Dog","background_difficulty":"3","image_path":"images/Dog/With_Backgrounds/difficulty3_image6.png","trial_type":"image-button-response","trial_index":38,"time_elapsed":67480,"internal_node_id":"0.0-2.0-0.36"},{"rt":1746,"stimulus":"images/Human/With_Backgrounds/difficulty1_image6.png","response":5,"category":"Human","background_difficulty":"1","image_path":"images/Human/With_Backgrounds/difficulty1_image6.png","trial_type":"image-button-response","trial_index":39,"time_elapsed":69228,"internal_node_id":"0.0-2.0-0.37"},{"rt":1658,"stimulus":"images/Other/With_Backgrounds/difficulty1_image9.png","response":7,"category":"Other","background_difficulty":"1","image_path":"images/Other/With_Backgrounds/difficulty1_image9.png","trial_type":"image-button-response","trial_index":40,"time_elapsed":70889,"internal_node_id":"0.0-2.0-0.38"},{"rt":2403,"stimulus":"images/Broccoli/With_Backgrounds/difficulty4_image8.png","response":1,"category":"Broccoli","background_difficulty":"4","image_path":"images/Broccoli/With_Backgrounds/difficulty4_image8.png","trial_type":"image-button-response","trial_index":41,"time_elapsed":73295,"internal_node_id":"0.0-2.0-0.39"},{"rt":1356,"stimulus":"images/Boat/With_Backgrounds/difficulty3_image9.png","response":0,"category":"Boat","background_difficulty":"3","image_path":"images/Boat/With_Backgrounds/difficulty3_image9.png","trial_type":"image-button-response","trial_index":42,"time_elapsed":74654,"internal_node_id":"0.0-2.0-0.40"},{"rt":1402,"stimulus":"images/Human/With_Backgrounds/difficulty2_image8.png","response":5,"category":"Human","background_difficulty":"2","image_path":"images/Human/With_Backgrounds/difficulty2_image8.png","trial_type":"image-button-response","trial_index":43,"time_elapsed":76061,"internal_node_id":"0.0-2.0-0.41"},{"rt":1399,"stimulus":"images/Dog/With_Backgrounds/difficulty5_image7.png","response":4,"category":"Dog","background_difficulty":"5","image_path":"images/Dog/With_Backgrounds/difficulty5_image7.png","trial_type":"image-button-response","trial_index":44,"time_elapsed":77464,"internal_node_id":"0.0-2.0-0.42"},{"rt":1388,"stimulus":"images/Human/With_Backgrounds/difficulty7_image7.png","response":5,"category":"Human","background_difficulty":"7","image_path":"images/Human/With_Backgrounds/difficulty7_image7.png","trial_type":"image-button-response","trial_index":45,"time_elapsed":78856,"internal_node_id":"0.0-2.0-0.43"},{"rt":1381,"stimulus":"images/Tree/With_Backgrounds/difficulty8_image5.png","response":6,"category":"Tree","background_difficulty":"8","image_path":"images/Tree/With_Backgrounds/difficulty8_image5.png","trial_type":"image-button-response","trial_index":46,"time_elapsed":80240,"internal_node_id":"0.0-2.0-0.44"},{"rt":1648,"stimulus":"images/Car/With_Backgrounds/difficulty7_image0.png","response":2,"category":"Car","background_difficulty":"7","image_path":"images/Car/With_Backgrounds/difficulty7_image0.png","trial_type":"image-button-response","trial_index":47,"time_elapsed":81890,"internal_node_id":"0.0-2.0-0.45"},{"rt":1334,"stimulus":"images/Car/With_Backgrounds/difficulty1_image1.png","response":2,"category":"Car","background_difficulty":"1","image_path":"images/Car/With_Backgrounds/difficulty1_image1.png","trial_type":"image-button-response","trial_index":48,"time_elapsed":83228,"internal_node_id":"0.0-2.0-0.46"},{"rt":1333,"stimulus":"images/Car/With_Backgrounds/difficulty2_image5.png","response":2,"category":"Car","background_difficulty":"2","image_path":"images/Car/With_Backgrounds/difficulty2_image5.png","trial_type":"image-button-response","trial_index":49,"time_elapsed":84566,"internal_node_id":"0.0-2.0-0.47"},{"rt":1405,"stimulus":"images/Cat/With_Backgrounds/difficulty0_image4.png","response":3,"category":"Cat","background_difficulty":"0","image_path":"images/Cat/With_Backgrounds/difficulty0_image4.png","trial_type":"image-button-response","trial_index":50,"time_elapsed":85975,"internal_node_id":"0.0-2.0-0.48"},{"rt":1432,"stimulus":"images/Tree/With_Backgrounds/difficulty5_image6.png","response":6,"category":"Tree","background_difficulty":"5","image_path":"images/Tree/With_Backgrounds/difficulty5_image6.png","trial_type":"image-button-response","trial_index":51,"time_elapsed":87408,"internal_node_id":"0.0-2.0-0.49"},{"rt":1454,"stimulus":"images/Human/With_Backgrounds/difficulty0_image0.png","response":5,"category":"Human","background_difficulty":"0","image_path":"images/Human/With_Backgrounds/difficulty0_image0.png","trial_type":"image-button-response","trial_index":52,"time_elapsed":88866,"internal_node_id":"0.0-2.0-0.50"},{"rt":1585,"stimulus":"images/Boat/With_Backgrounds/difficulty0_image7.png","response":0,"category":"Boat","background_difficulty":"0","image_path":"images/Boat/With_Backgrounds/difficulty0_image7.png","trial_type":"image-button-response","trial_index":53,"time_elapsed":90454,"internal_node_id":"0.0-2.0-0.51"},{"rt":1450,"stimulus":"images/Boat/With_Backgrounds/difficulty6_image1.png","response":0,"category":"Boat","background_difficulty":"6","image_path":"images/Boat/With_Backgrounds/difficulty6_image1.png","trial_type":"image-button-response","trial_index":54,"time_elapsed":91906,"internal_node_id":"0.0-2.0-0.52"},{"rt":1567,"stimulus":"images/Boat/With_Backgrounds/difficulty5_image5.png","response":0,"category":"Boat","background_difficulty":"5","image_path":"images/Boat/With_Backgrounds/difficulty5_image5.png","trial_type":"image-button-response","trial_index":55,"time_elapsed":93476,"internal_node_id":"0.0-2.0-0.53"},{"rt":1537,"stimulus":"images/Boat/With_Backgrounds/difficulty7_image2.png","response":0,"category":"Boat","background_difficulty":"7","image_path":"images/Boat/With_Backgrounds/difficulty7_image2.png","trial_type":"image-button-response","trial_index":56,"time_elapsed":95016,"internal_node_id":"0.0-2.0-0.54"},{"rt":2384,"stimulus":"images/Car/With_Backgrounds/difficulty8_image9.png","response":2,"category":"Car","background_difficulty":"8","image_path":"images/Car/With_Backgrounds/difficulty8_image9.png","trial_type":"image-button-response","trial_index":57,"time_elapsed":97403,"internal_node_id":"0.0-2.0-0.55"},{"rt":2089,"stimulus":"images/Boat/With_Backgrounds/difficulty1_image0.png","response":0,"category":"Boat","background_difficulty":"1","image_path":"images/Boat/With_Backgrounds/difficulty1_image0.png","trial_type":"image-button-response","trial_index":58,"time_elapsed":99494,"internal_node_id":"0.0-2.0-0.56"},{"rt":1906,"stimulus":"images/Cat/With_Backgrounds/difficulty7_image3.png","response":3,"category":"Cat","background_difficulty":"7","image_path":"images/Cat/With_Backgrounds/difficulty7_image3.png","trial_type":"image-button-response","trial_index":59,"time_elapsed":101403,"internal_node_id":"0.0-2.0-0.57"},{"rt":1655,"stimulus":"images/Human/With_Backgrounds/difficulty3_image1.png","response":5,"category":"Human","background_difficulty":"3","image_path":"images/Human/With_Backgrounds/difficulty3_image1.png","trial_type":"image-button-response","trial_index":60,"time_elapsed":103062,"internal_node_id":"0.0-2.0-0.58"},{"rt":1422,"stimulus":"images/Broccoli/With_Backgrounds/difficulty8_image5.png","response":1,"category":"Broccoli","background_difficulty":"8","image_path":"images/Broccoli/With_Backgrounds/difficulty8_image5.png","trial_type":"image-button-response","trial_index":61,"time_elapsed":104487,"internal_node_id":"0.0-2.0-0.59"},{"rt":1609,"stimulus":"images/Car/With_Backgrounds/difficulty0_image7.png","response":2,"category":"Car","background_difficulty":"0","image_path":"images/Car/With_Backgrounds/difficulty0_image7.png","trial_type":"image-button-response","trial_index":62,"time_elapsed":106099,"internal_node_id":"0.0-2.0-0.60"},{"rt":1397,"stimulus":"images/Boat/With_Backgrounds/difficulty4_image6.png","response":0,"category":"Boat","background_difficulty":"4","image_path":"images/Boat/With_Backgrounds/difficulty4_image6.png","trial_type":"image-button-response","trial_index":63,"time_elapsed":107500,"internal_node_id":"0.0-2.0-0.61"},{"rt":1652,"stimulus":"images/Other/With_Backgrounds/difficulty5_image0.png","response":7,"category":"Other","background_difficulty":"5","image_path":"images/Other/With_Backgrounds/difficulty5_image0.png","trial_type":"image-button-response","trial_index":64,"time_elapsed":109156,"internal_node_id":"0.0-2.0-0.62"},{"rt":1362,"stimulus":"images/Boat/With_Backgrounds/difficulty8_image4.png","response":0,"category":"Boat","background_difficulty":"8","image_path":"images/Boat/With_Backgrounds/difficulty8_image4.png","trial_type":"image-button-response","trial_index":65,"time_elapsed":110522,"internal_node_id":"0.0-2.0-0.63"},{"rt":1538,"stimulus":"images/Boat/With_Backgrounds/difficulty2_image3.png","response":0,"category":"Boat","background_difficulty":"2","image_path":"images/Boat/With_Backgrounds/difficulty2_image3.png","trial_type":"image-button-response","trial_index":66,"time_elapsed":112063,"internal_node_id":"0.0-2.0-0.64"},{"rt":1697,"stimulus":"images/Broccoli/With_Backgrounds/difficulty0_image2.png","response":1,"category":"Broccoli","background_difficulty":"0","image_path":"images/Broccoli/With_Backgrounds/difficulty0_image2.png","trial_type":"image-button-response","trial_index":67,"time_elapsed":113764,"internal_node_id":"0.0-2.0-0.65"},{"rt":1689,"stimulus":"images/Car/With_Backgrounds/difficulty4_image6.png","response":2,"category":"Car","background_difficulty":"4","image_path":"images/Car/With_Backgrounds/difficulty4_image6.png","trial_type":"image-button-response","trial_index":68,"time_elapsed":115456,"internal_node_id":"0.0-2.0-0.66"},{"rt":1717,"stimulus":"images/Cat/With_Backgrounds/difficulty8_image8.png","response":3,"category":"Cat","background_difficulty":"8","image_path":"images/Cat/With_Backgrounds/difficulty8_image8.png","trial_type":"image-button-response","trial_index":69,"time_elapsed":117176,"internal_node_id":"0.0-2.0-0.67"},{"rt":1408,"stimulus":"images/Dog/With_Backgrounds/difficulty7_image0.png","response":4,"category":"Dog","background_difficulty":"7","image_path":"images/Dog/With_Backgrounds/difficulty7_image0.png","trial_type":"image-button-response","trial_index":70,"time_elapsed":118586,"internal_node_id":"0.0-2.0-0.68"},{"rt":1585,"stimulus":"images/Tree/With_Backgrounds/difficulty3_image3.png","response":6,"category":"Tree","background_difficulty":"3","image_path":"images/Tree/With_Backgrounds/difficulty3_image3.png","trial_type":"image-button-response","trial_index":71,"time_elapsed":120175,"internal_node_id":"0.0-2.0-0.69"},{"rt":1967,"stimulus":"images/Dog/With_Backgrounds/difficulty2_image1.png","response":4,"category":"Dog","background_difficulty":"2","image_path":"images/Dog/With_Backgrounds/difficulty2_image1.png","trial_type":"image-button-response","trial_index":72,"time_elapsed":122146,"internal_node_id":"0.0-2.0-0.70"},{"rt":1755,"stimulus":"images/Car/With_Backgrounds/difficulty3_image4.png","response":2,"category":"Car","background_difficulty":"3","image_path":"images/Car/With_Backgrounds/difficulty3_image4.png","trial_type":"image-button-response","trial_index":73,"time_elapsed":123905,"internal_node_id":"0.0-2.0-0.71"},{"rt":1945,"stimulus":["<h2>Press the button below to end experiment.</h2><p>Thank you for participating!</p>"],"response":0,"trial_type":"html-button-response","trial_index":74,"time_elapsed":125853,"internal_node_id":"0.0-3.0"}]