[{"success":true,"timeout":false,"failed_images":[],"failed_audio":[],"failed_video":[],"trial_type":"preload","trial_index":0,"time_elapsed":8235,"internal_node_id":"0.0-0.0"},{"rt":5180,"stimulus":["<h2>Noisy background image classification</h2><p>In this experiment you will briefly see images on top of colored squares of various sizes.</p><p>Your task is to report what each image is, selecting \"None of the Above\" if none of the given options are correct.</p> <p>The possible options are <strong>Boat</strong>, <strong>Broccoli</strong>, <strong>Car</strong>, <strong>Cat</strong>, <strong>Dog</strong>, <strong>Human</strong>, <strong>Tree</strong>, and <strong>None of the Above</strong>"],"response":0,"trial_type":"html-button-response","trial_index":1,"time_elapsed":13417,"internal_node_id":"0.0-1.0"},{"rt":2504,"stimulus":"images/Tree/With_Backgrounds/difficulty3_image8.png","response":6,"category":"Tree","background_difficulty":"3","image_path":"images/Tree/With_Backgrounds/difficulty3_image8.png","trial_type":"image-button-response","trial_index":2,"time_elapsed":15926,"internal_node_id":"0.0-2.0-0.0"},{"rt":1102,"stimulus":"images/Dog/With_Backgrounds/difficulty3_image9.png","response":4,"category":"Dog","background_difficulty":"3","image_path":"images/Dog/With_Backgrounds/difficulty3_image9.png","trial_type":"image-button-response","trial_index":3,"time_elapsed":17030,"internal_node_id":"0.0-2.0-0.1"},{"rt":1423,"stimulus":"images/Car/With_Backgrounds/difficulty7_image6.png","response":2,"category":"Car","background_difficulty":"7","image_path":"images/Car/With_Backgrounds/difficulty7_image6.png","trial_type":"image-button-response","trial_index":4,"time_elapsed":18454,"internal_node_id":"0.0-2.0-0.2"},{"rt":3029,"stimulus":"images/Other/With_Backgrounds/difficulty6_image8.png","response":7,"category":"Other","background_difficulty":"6","image_path":"images/Other/With_Backgrounds/difficulty6_image8.png","trial_type":"image-button-response","trial_index":5,"time_elapsed":21483,"internal_node_id":"0.0-2.0-0.3"},{"rt":1620,"stimulus":"images/Cat/With_Backgrounds/difficulty4_image8.png","response":3,"category":"Cat","background_difficulty":"4","image_path":"images/Cat/With_Backgrounds/difficulty4_image8.png","trial_type":"image-button-response","trial_index":6,"time_elapsed":23104,"internal_node_id":"0.0-2.0-0.4"},{"rt":1620,"stimulus":"images/Tree/With_Backgrounds/difficulty6_image6.png","response":6,"category":"Tree","background_difficulty":"6","image_path":"images/Tree/With_Backgrounds/difficulty6_image6.png","trial_type":"image-button-response","trial_index":7,"time_elapsed":24725,"internal_node_id":"0.0-2.0-0.5"},{"rt":1810,"stimulus":"images/Dog/With_Backgrounds/difficulty5_image3.png","response":4,"category":"Dog","background_difficulty":"5","image_path":"images/Dog/With_Backgrounds/difficulty5_image3.png","trial_type":"image-button-response","trial_index":8,"time_elapsed":26536,"internal_node_id":"0.0-2.0-0.6"},{"rt":1185,"stimulus":"images/Tree/With_Backgrounds/difficulty2_image2.png","response":6,"category":"Tree","background_difficulty":"2","image_path":"images/Tree/With_Backgrounds/difficulty2_image2.png","trial_type":"image-button-response","trial_index":9,"time_elapsed":27723,"internal_node_id":"0.0-2.0-0.7"},{"rt":1288,"stimulus":"images/Car/With_Backgrounds/difficulty2_image4.png","response":2,"category":"Car","background_difficulty":"2","image_path":"images/Car/With_Backgrounds/difficulty2_image4.png","trial_type":"image-button-response","trial_index":10,"time_elapsed":29012,"internal_node_id":"0.0-2.0-0.8"},{"rt":1754,"stimulus":"images/Broccoli/With_Backgrounds/difficulty3_image8.png","response":1,"category":"Broccoli","background_difficulty":"3","image_path":"images/Broccoli/With_Backgrounds/difficulty3_image8.png","trial_type":"image-button-response","trial_index":11,"time_elapsed":30767,"internal_node_id":"0.0-2.0-0.9"},{"rt":1225,"stimulus":"images/Car/With_Backgrounds/difficulty1_image0.png","response":2,"category":"Car","background_difficulty":"1","image_path":"images/Car/With_Backgrounds/difficulty1_image0.png","trial_type":"image-button-response","trial_index":12,"time_elapsed":31993,"internal_node_id":"0.0-2.0-0.10"},{"rt":1739,"stimulus":"images/Human/With_Backgrounds/difficulty5_image5.png","response":5,"category":"Human","background_difficulty":"5","image_path":"images/Human/With_Backgrounds/difficulty5_image5.png","trial_type":"image-button-response","trial_index":13,"time_elapsed":33733,"internal_node_id":"0.0-2.0-0.11"},{"rt":1058,"stimulus":"images/Broccoli/With_Backgrounds/difficulty1_image7.png","response":1,"category":"Broccoli","background_difficulty":"1","image_path":"images/Broccoli/With_Backgrounds/difficulty1_image7.png","trial_type":"image-button-response","trial_index":14,"time_elapsed":34792,"internal_node_id":"0.0-2.0-0.12"},{"rt":1335,"stimulus":"images/Tree/With_Backgrounds/difficulty4_image0.png","response":6,"category":"Tree","background_difficulty":"4","image_path":"images/Tree/With_Backgrounds/difficulty4_image0.png","trial_type":"image-button-response","trial_index":15,"time_elapsed":36129,"internal_node_id":"0.0-2.0-0.13"},{"rt":1075,"stimulus":"images/Dog/With_Backgrounds/difficulty6_image6.png","response":4,"category":"Dog","background_difficulty":"6","image_path":"images/Dog/With_Backgrounds/difficulty6_image6.png","trial_type":"image-button-response","trial_index":16,"time_elapsed":37205,"internal_node_id":"0.0-2.0-0.14"},{"rt":1059,"stimulus":"images/Human/With_Backgrounds/difficulty7_image3.png","response":5,"category":"Human","background_difficulty":"7","image_path":"images/Human/With_Backgrounds/difficulty7_image3.png","trial_type":"image-button-response","trial_index":17,"time_elapsed":38265,"internal_node_id":"0.0-2.0-0.15"},{"rt":2441,"stimulus":"images/Other/With_Backgrounds/difficulty3_image3.png","response":7,"category":"Other","background_difficulty":"3","image_path":"images/Other/With_Backgrounds/difficulty3_image3.png","trial_type":"image-button-response","trial_index":18,"time_elapsed":40708,"internal_node_id":"0.0-2.0-0.16"},{"rt":1209,"stimulus":"images/Other/With_Backgrounds/difficulty0_image9.png","response":7,"category":"Other","background_difficulty":"0","image_path":"images/Other/With_Backgrounds/difficulty0_image9.png","trial_type":"image-button-response","trial_index":19,"time_elapsed":41918,"internal_node_id":"0.0-2.0-0.17"},{"rt":1232,"stimulus":"images/Human/With_Backgrounds/difficulty6_image6.png","response":5,"category":"Human","background_difficulty":"6","image_path":"images/Human/With_Backgrounds/difficulty6_image6.png","trial_type":"image-button-response","trial_index":20,"time_elapsed":43152,"internal_node_id":"0.0-2.0-0.18"},{"rt":2292,"stimulus":"images/Other/With_Backgrounds/difficulty8_image7.png","response":7,"category":"Other","background_difficulty":"8","image_path":"images/Other/With_Backgrounds/difficulty8_image7.png","trial_type":"image-button-response","trial_index":21,"time_elapsed":45446,"internal_node_id":"0.0-2.0-0.19"},{"rt":1359,"stimulus":"images/Car/With_Backgrounds/difficulty8_image1.png","response":2,"category":"Car","background_difficulty":"8","image_path":"images/Car/With_Backgrounds/difficulty8_image1.png","trial_type":"image-button-response","trial_index":22,"time_elapsed":46805,"internal_node_id":"0.0-2.0-0.20"},{"rt":1296,"stimulus":"images/Human/With_Backgrounds/difficulty2_image1.png","response":5,"category":"Human","background_difficulty":"2","image_path":"images/Human/With_Backgrounds/difficulty2_image1.png","trial_type":"image-button-response","trial_index":23,"time_elapsed":48102,"internal_node_id":"0.0-2.0-0.21"},{"rt":2168,"stimulus":"images/Other/With_Backgrounds/difficulty5_image6.png","response":7,"category":"Other","background_difficulty":"5","image_path":"images/Other/With_Backgrounds/difficulty5_image6.png","trial_type":"image-button-response","trial_index":24,"time_elapsed":50272,"internal_node_id":"0.0-2.0-0.22"},{"rt":2241,"stimulus":"images/Tree/With_Backgrounds/difficulty1_image9.png","response":6,"category":"Tree","background_difficulty":"1","image_path":"images/Tree/With_Backgrounds/difficulty1_image9.png","trial_type":"image-button-response","trial_index":25,"time_elapsed":52516,"internal_node_id":"0.0-2.0-0.23"},{"rt":1136,"stimulus":"images/Broccoli/With_Backgrounds/difficulty8_image4.png","response":1,"category":"Broccoli","background_difficulty":"8","image_path":"images/Broccoli/With_Backgrounds/difficulty8_image4.png","trial_type":"image-button-response","trial_index":26,"time_elapsed":53653,"internal_node_id":"0.0-2.0-0.24"},{"rt":1218,"stimulus":"images/Dog/With_Backgrounds/difficulty2_image8.png","response":4,"category":"Dog","background_difficulty":"2","image_path":"images/Dog/With_Backgrounds/difficulty2_image8.png","trial_type":"image-button-response","trial_index":27,"time_elapsed":54872,"internal_node_id":"0.0-2.0-0.25"},{"rt":1241,"stimulus":"images/Boat/With_Backgrounds/difficulty2_image2.png","response":0,"category":"Boat","background_difficulty":"2","image_path":"images/Boat/With_Backgrounds/difficulty2_image2.png","trial_type":"image-button-response","trial_index":28,"time_elapsed":56114,"internal_node_id":"0.0-2.0-0.26"},{"rt":1241,"stimulus":"images/Tree/With_Backgrounds/difficulty7_image1.png","response":6,"category":"Tree","background_difficulty":"7","image_path":"images/Tree/With_Backgrounds/difficulty7_image1.png","trial_type":"image-button-response","trial_index":29,"time_elapsed":57355,"internal_node_id":"0.0-2.0-0.27"},{"rt":1051,"stimulus":"images/Human/With_Backgrounds/difficulty8_image2.png","response":5,"category":"Human","background_difficulty":"8","image_path":"images/Human/With_Backgrounds/difficulty8_image2.png","trial_type":"image-button-response","trial_index":30,"time_elapsed":58407,"internal_node_id":"0.0-2.0-0.28"},{"rt":1193,"stimulus":"images/Car/With_Backgrounds/difficulty6_image3.png","response":2,"category":"Car","background_difficulty":"6","image_path":"images/Car/With_Backgrounds/difficulty6_image3.png","trial_type":"image-button-response","trial_index":31,"time_elapsed":59602,"internal_node_id":"0.0-2.0-0.29"},{"rt":1114,"stimulus":"images/Boat/With_Backgrounds/difficulty6_image8.png","response":0,"category":"Boat","background_difficulty":"6","image_path":"images/Boat/With_Backgrounds/difficulty6_image8.png","trial_type":"image-button-response","trial_index":32,"time_elapsed":60717,"internal_node_id":"0.0-2.0-0.30"},{"rt":1232,"stimulus":"images/Tree/With_Backgrounds/difficulty5_image3.png","response":6,"category":"Tree","background_difficulty":"5","image_path":"images/Tree/With_Backgrounds/difficulty5_image3.png","trial_type":"image-button-response","trial_index":33,"time_elapsed":61950,"internal_node_id":"0.0-2.0-0.31"},{"rt":941,"stimulus":"images/Cat/With_Backgrounds/difficulty5_image5.png","response":3,"category":"Cat","background_difficulty":"5","image_path":"images/Cat/With_Backgrounds/difficulty5_image5.png","trial_type":"image-button-response","trial_index":34,"time_elapsed":62891,"internal_node_id":"0.0-2.0-0.32"},{"rt":1280,"stimulus":"images/Car/With_Backgrounds/difficulty4_image9.png","response":2,"category":"Car","background_difficulty":"4","image_path":"images/Car/With_Backgrounds/difficulty4_image9.png","trial_type":"image-button-response","trial_index":35,"time_elapsed":64172,"internal_node_id":"0.0-2.0-0.33"},{"rt":1541,"stimulus":"images/Cat/With_Backgrounds/difficulty0_image1.png","response":3,"category":"Cat","background_difficulty":"0","image_path":"images/Cat/With_Backgrounds/difficulty0_image1.png","trial_type":"image-button-response","trial_index":36,"time_elapsed":65715,"internal_node_id":"0.0-2.0-0.34"},{"rt":1399,"stimulus":"images/Broccoli/With_Backgrounds/difficulty2_image1.png","response":1,"category":"Broccoli","background_difficulty":"2","image_path":"images/Broccoli/With_Backgrounds/difficulty2_image1.png","trial_type":"image-button-response","trial_index":37,"time_elapsed":67114,"internal_node_id":"0.0-2.0-0.35"},{"rt":782,"stimulus":"images/Broccoli/With_Backgrounds/difficulty7_image9.png","response":1,"category":"Broccoli","background_difficulty":"7","image_path":"images/Broccoli/With_Backgrounds/difficulty7_image9.png","trial_type":"image-button-response","trial_index":38,"time_elapsed":67897,"internal_node_id":"0.0-2.0-0.36"},{"rt":1154,"stimulus":"images/Cat/With_Backgrounds/difficulty7_image4.png","response":3,"category":"Cat","background_difficulty":"7","image_path":"images/Cat/With_Backgrounds/difficulty7_image4.png","trial_type":"image-button-response","trial_index":39,"time_elapsed":69052,"internal_node_id":"0.0-2.0-0.37"},{"rt":964,"stimulus":"images/Cat/With_Backgrounds/difficulty3_image6.png","response":3,"category":"Cat","background_difficulty":"3","image_path":"images/Cat/With_Backgrounds/difficulty3_image6.png","trial_type":"image-button-response","trial_index":40,"time_elapsed":70017,"internal_node_id":"0.0-2.0-0.38"},{"rt":696,"stimulus":"images/Cat/With_Backgrounds/difficulty8_image7.png","response":3,"category":"Cat","background_difficulty":"8","image_path":"images/Cat/With_Backgrounds/difficulty8_image7.png","trial_type":"image-button-response","trial_index":41,"time_elapsed":70714,"internal_node_id":"0.0-2.0-0.39"},{"rt":1113,"stimulus":"images/Other/With_Backgrounds/difficulty2_image2.png","response":7,"category":"Other","background_difficulty":"2","image_path":"images/Other/With_Backgrounds/difficulty2_image2.png","trial_type":"image-button-response","trial_index":42,"time_elapsed":71828,"internal_node_id":"0.0-2.0-0.40"},{"rt":1113,"stimulus":"images/Other/With_Backgrounds/difficulty1_image0.png","response":7,"category":"Other","background_difficulty":"1","image_path":"images/Other/With_Backgrounds/difficulty1_image0.png","trial_type":"image-button-response","trial_index":43,"time_elapsed":72943,"internal_node_id":"0.0-2.0-0.41"},{"rt":1018,"stimulus":"images/Dog/With_Backgrounds/difficulty1_image1.png","response":4,"category":"Dog","background_difficulty":"1","image_path":"images/Dog/With_Backgrounds/difficulty1_image1.png","trial_type":"image-button-response","trial_index":44,"time_elapsed":73962,"internal_node_id":"0.0-2.0-0.42"},{"rt":1355,"stimulus":"images/Other/With_Backgrounds/difficulty7_image1.png","response":7,"category":"Other","background_difficulty":"7","image_path":"images/Other/With_Backgrounds/difficulty7_image1.png","trial_type":"image-button-response","trial_index":45,"time_elapsed":75318,"internal_node_id":"0.0-2.0-0.43"},{"rt":1206,"stimulus":"images/Broccoli/With_Backgrounds/difficulty4_image6.png","response":1,"category":"Broccoli","background_difficulty":"4","image_path":"images/Broccoli/With_Backgrounds/difficulty4_image6.png","trial_type":"image-button-response","trial_index":46,"time_elapsed":76525,"internal_node_id":"0.0-2.0-0.44"},{"rt":1288,"stimulus":"images/Car/With_Backgrounds/difficulty5_image2.png","response":2,"category":"Car","background_difficulty":"5","image_path":"images/Car/With_Backgrounds/difficulty5_image2.png","trial_type":"image-button-response","trial_index":47,"time_elapsed":77814,"internal_node_id":"0.0-2.0-0.45"},{"rt":1288,"stimulus":"images/Boat/With_Backgrounds/difficulty3_image5.png","response":0,"category":"Boat","background_difficulty":"3","image_path":"images/Boat/With_Backgrounds/difficulty3_image5.png","trial_type":"image-button-response","trial_index":48,"time_elapsed":79103,"internal_node_id":"0.0-2.0-0.46"},{"rt":1961,"stimulus":"images/Boat/With_Backgrounds/difficulty5_image3.png","response":0,"category":"Boat","background_difficulty":"5","image_path":"images/Boat/With_Backgrounds/difficulty5_image3.png","trial_type":"image-button-response","trial_index":49,"time_elapsed":81065,"internal_node_id":"0.0-2.0-0.47"},{"rt":1208,"stimulus":"images/Dog/With_Backgrounds/difficulty4_image5.png","response":4,"category":"Dog","background_difficulty":"4","image_path":"images/Dog/With_Backgrounds/difficulty4_image5.png","trial_type":"image-button-response","trial_index":50,"time_elapsed":82274,"internal_node_id":"0.0-2.0-0.48"},{"rt":940,"stimulus":"images/Human/With_Backgrounds/difficulty3_image7.png","response":5,"category":"Human","background_difficulty":"3","image_path":"images/Human/With_Backgrounds/difficulty3_image7.png","trial_type":"image-button-response","trial_index":51,"time_elapsed":83216,"internal_node_id":"0.0-2.0-0.49"},{"rt":1312,"stimulus":"images/Broccoli/With_Backgrounds/difficulty5_image0.png","response":1,"category":"Broccoli","background_difficulty":"5","image_path":"images/Broccoli/With_Backgrounds/difficulty5_image0.png","trial_type":"image-button-response","trial_index":52,"time_elapsed":84529,"internal_node_id":"0.0-2.0-0.50"},{"rt":1176,"stimulus":"images/Car/With_Backgrounds/difficulty0_image7.png","response":2,"category":"Car","background_difficulty":"0","image_path":"images/Car/With_Backgrounds/difficulty0_image7.png","trial_type":"image-button-response","trial_index":53,"time_elapsed":85706,"internal_node_id":"0.0-2.0-0.51"},{"rt":1391,"stimulus":"images/Boat/With_Backgrounds/difficulty8_image4.png","response":0,"category":"Boat","background_difficulty":"8","image_path":"images/Boat/With_Backgrounds/difficulty8_image4.png","trial_type":"image-button-response","trial_index":54,"time_elapsed":87099,"internal_node_id":"0.0-2.0-0.52"},{"rt":1463,"stimulus":"images/Broccoli/With_Backgrounds/difficulty0_image5.png","response":1,"category":"Broccoli","background_difficulty":"0","image_path":"images/Broccoli/With_Backgrounds/difficulty0_image5.png","trial_type":"image-button-response","trial_index":55,"time_elapsed":88562,"internal_node_id":"0.0-2.0-0.53"},{"rt":1082,"stimulus":"images/Cat/With_Backgrounds/difficulty6_image2.png","response":3,"category":"Cat","background_difficulty":"6","image_path":"images/Cat/With_Backgrounds/difficulty6_image2.png","trial_type":"image-button-response","trial_index":56,"time_elapsed":89645,"internal_node_id":"0.0-2.0-0.54"},{"rt":1375,"stimulus":"images/Tree/With_Backgrounds/difficulty8_image7.png","response":6,"category":"Tree","background_difficulty":"8","image_path":"images/Tree/With_Backgrounds/difficulty8_image7.png","trial_type":"image-button-response","trial_index":57,"time_elapsed":91021,"internal_node_id":"0.0-2.0-0.55"},{"rt":1185,"stimulus":"images/Car/With_Backgrounds/difficulty3_image5.png","response":2,"category":"Car","background_difficulty":"3","image_path":"images/Car/With_Backgrounds/difficulty3_image5.png","trial_type":"image-button-response","trial_index":58,"time_elapsed":92208,"internal_node_id":"0.0-2.0-0.56"},{"rt":925,"stimulus":"images/Human/With_Backgrounds/difficulty1_image9.png","response":5,"category":"Human","background_difficulty":"1","image_path":"images/Human/With_Backgrounds/difficulty1_image9.png","trial_type":"image-button-response","trial_index":59,"time_elapsed":93134,"internal_node_id":"0.0-2.0-0.57"},{"rt":1263,"stimulus":"images/Tree/With_Backgrounds/difficulty0_image5.png","response":6,"category":"Tree","background_difficulty":"0","image_path":"images/Tree/With_Backgrounds/difficulty0_image5.png","trial_type":"image-button-response","trial_index":60,"time_elapsed":94399,"internal_node_id":"0.0-2.0-0.58"},{"rt":1274,"stimulus":"images/Broccoli/With_Backgrounds/difficulty6_image2.png","response":1,"category":"Broccoli","background_difficulty":"6","image_path":"images/Broccoli/With_Backgrounds/difficulty6_image2.png","trial_type":"image-button-response","trial_index":61,"time_elapsed":95674,"internal_node_id":"0.0-2.0-0.59"},{"rt":1347,"stimulus":"images/Boat/With_Backgrounds/difficulty7_image1.png","response":0,"category":"Boat","background_difficulty":"7","image_path":"images/Boat/With_Backgrounds/difficulty7_image1.png","trial_type":"image-button-response","trial_index":62,"time_elapsed":97024,"internal_node_id":"0.0-2.0-0.60"},{"rt":1098,"stimulus":"images/Other/With_Backgrounds/difficulty4_image5.png","response":7,"category":"Other","background_difficulty":"4","image_path":"images/Other/With_Backgrounds/difficulty4_image5.png","trial_type":"image-button-response","trial_index":63,"time_elapsed":98123,"internal_node_id":"0.0-2.0-0.61"},{"rt":1331,"stimulus":"images/Boat/With_Backgrounds/difficulty0_image6.png","response":0,"category":"Boat","background_difficulty":"0","image_path":"images/Boat/With_Backgrounds/difficulty0_image6.png","trial_type":"image-button-response","trial_index":64,"time_elapsed":99456,"internal_node_id":"0.0-2.0-0.62"},{"rt":1145,"stimulus":"images/Dog/With_Backgrounds/difficulty8_image7.png","response":4,"category":"Dog","background_difficulty":"8","image_path":"images/Dog/With_Backgrounds/difficulty8_image7.png","trial_type":"image-button-response","trial_index":65,"time_elapsed":100608,"internal_node_id":"0.0-2.0-0.63"},{"rt":860,"stimulus":"images/Dog/With_Backgrounds/difficulty7_image0.png","response":4,"category":"Dog","background_difficulty":"7","image_path":"images/Dog/With_Backgrounds/difficulty7_image0.png","trial_type":"image-button-response","trial_index":66,"time_elapsed":101469,"internal_node_id":"0.0-2.0-0.64"},{"rt":892,"stimulus":"images/Dog/With_Backgrounds/difficulty0_image4.png","response":4,"category":"Dog","background_difficulty":"0","image_path":"images/Dog/With_Backgrounds/difficulty0_image4.png","trial_type":"image-button-response","trial_index":67,"time_elapsed":102363,"internal_node_id":"0.0-2.0-0.65"},{"rt":965,"stimulus":"images/Human/With_Backgrounds/difficulty0_image0.png","response":5,"category":"Human","background_difficulty":"0","image_path":"images/Human/With_Backgrounds/difficulty0_image0.png","trial_type":"image-button-response","trial_index":68,"time_elapsed":103332,"internal_node_id":"0.0-2.0-0.66"},{"rt":1476,"stimulus":"images/Cat/With_Backgrounds/difficulty1_image0.png","response":3,"category":"Cat","background_difficulty":"1","image_path":"images/Cat/With_Backgrounds/difficulty1_image0.png","trial_type":"image-button-response","trial_index":69,"time_elapsed":104815,"internal_node_id":"0.0-2.0-0.67"},{"rt":1452,"stimulus":"images/Boat/With_Backgrounds/difficulty4_image7.png","response":0,"category":"Boat","background_difficulty":"4","image_path":"images/Boat/With_Backgrounds/difficulty4_image7.png","trial_type":"image-button-response","trial_index":70,"time_elapsed":106269,"internal_node_id":"0.0-2.0-0.68"},{"rt":1469,"stimulus":"images/Cat/With_Backgrounds/difficulty2_image3.png","response":3,"category":"Cat","background_difficulty":"2","image_path":"images/Cat/With_Backgrounds/difficulty2_image3.png","trial_type":"image-button-response","trial_index":71,"time_elapsed":107740,"internal_node_id":"0.0-2.0-0.69"},{"rt":1367,"stimulus":"images/Human/With_Backgrounds/difficulty4_image4.png","response":5,"category":"Human","background_difficulty":"4","image_path":"images/Human/With_Backgrounds/difficulty4_image4.png","trial_type":"image-button-response","trial_index":72,"time_elapsed":109108,"internal_node_id":"0.0-2.0-0.70"},{"rt":1596,"stimulus":"images/Boat/With_Backgrounds/difficulty1_image9.png","response":0,"category":"Boat","background_difficulty":"1","image_path":"images/Boat/With_Backgrounds/difficulty1_image9.png","trial_type":"image-button-response","trial_index":73,"time_elapsed":110706,"internal_node_id":"0.0-2.0-0.71"},{"rt":1618,"stimulus":["<h2>Press the button below to end experiment.</h2><p>Thank you for participating!</p>"],"response":0,"trial_type":"html-button-response","trial_index":74,"time_elapsed":112326,"internal_node_id":"0.0-3.0"}]