[{"success":true,"timeout":false,"failed_images":[],"failed_audio":[],"failed_video":[],"trial_type":"preload","trial_index":0,"time_elapsed":1562,"internal_node_id":"0.0-0.0"},{"rt":3331,"stimulus":["<h2>Noisy background image classification</h2><p>In this experiment you will briefly see images on top of colored squares of various sizes.</p><p>Your task is to report what each image is, selecting \"None of the Above\" if none of the given options are correct.</p> <p>The possible options are <strong>Boat</strong>, <strong>Broccoli</strong>, <strong>Car</strong>, <strong>Cat</strong>, <strong>Dog</strong>, <strong>Human</strong>, <strong>Tree</strong>, and <strong>None of the Above</strong>"],"response":0,"trial_type":"html-button-response","trial_index":1,"time_elapsed":4895,"internal_node_id":"0.0-1.0"},{"rt":1684,"stimulus":"images/Car/With_Backgrounds/difficulty5_image4.png","response":2,"category":"Car","background_difficulty":"5","image_path":"images/Car/With_Backgrounds/difficulty5_image4.png","trial_type":"image-button-response","trial_index":2,"time_elapsed":6582,"internal_node_id":"0.0-2.0-0.0"},{"rt":1364,"stimulus":"images/Dog/With_Backgrounds/difficulty7_image3.png","response":4,"category":"Dog","background_difficulty":"7","image_path":"images/Dog/With_Backgrounds/difficulty7_image3.png","trial_type":"image-button-response","trial_index":3,"time_elapsed":7948,"internal_node_id":"0.0-2.0-0.1"},{"rt":1308,"stimulus":"images/Broccoli/With_Backgrounds/difficulty8_image7.png","response":1,"category":"Broccoli","background_difficulty":"8","image_path":"images/Broccoli/With_Backgrounds/difficulty8_image7.png","trial_type":"image-button-response","trial_index":4,"time_elapsed":9259,"internal_node_id":"0.0-2.0-0.2"},{"rt":1511,"stimulus":"images/Tree/With_Backgrounds/difficulty1_image6.png","response":6,"category":"Tree","background_difficulty":"1","image_path":"images/Tree/With_Backgrounds/difficulty1_image6.png","trial_type":"image-button-response","trial_index":5,"time_elapsed":10772,"internal_node_id":"0.0-2.0-0.3"},{"rt":1720,"stimulus":"images/Boat/With_Backgrounds/difficulty0_image4.png","response":0,"category":"Boat","background_difficulty":"0","image_path":"images/Boat/With_Backgrounds/difficulty0_image4.png","trial_type":"image-button-response","trial_index":6,"time_elapsed":12495,"internal_node_id":"0.0-2.0-0.4"},{"rt":1824,"stimulus":"images/Car/With_Backgrounds/difficulty4_image5.png","response":2,"category":"Car","background_difficulty":"4","image_path":"images/Car/With_Backgrounds/difficulty4_image5.png","trial_type":"image-button-response","trial_index":7,"time_elapsed":14320,"internal_node_id":"0.0-2.0-0.5"},{"rt":814,"stimulus":"images/Car/With_Backgrounds/difficulty8_image3.png","response":2,"category":"Car","background_difficulty":"8","image_path":"images/Car/With_Backgrounds/difficulty8_image3.png","trial_type":"image-button-response","trial_index":8,"time_elapsed":15136,"internal_node_id":"0.0-2.0-0.6"},{"rt":1034,"stimulus":"images/Dog/With_Backgrounds/difficulty4_image0.png","response":4,"category":"Dog","background_difficulty":"4","image_path":"images/Dog/With_Backgrounds/difficulty4_image0.png","trial_type":"image-button-response","trial_index":9,"time_elapsed":16172,"internal_node_id":"0.0-2.0-0.7"},{"rt":901,"stimulus":"images/Broccoli/With_Backgrounds/difficulty1_image5.png","response":1,"category":"Broccoli","background_difficulty":"1","image_path":"images/Broccoli/With_Backgrounds/difficulty1_image5.png","trial_type":"image-button-response","trial_index":10,"time_elapsed":17074,"internal_node_id":"0.0-2.0-0.8"},{"rt":1208,"stimulus":"images/Car/With_Backgrounds/difficulty0_image1.png","response":2,"category":"Car","background_difficulty":"0","image_path":"images/Car/With_Backgrounds/difficulty0_image1.png","trial_type":"image-button-response","trial_index":11,"time_elapsed":18284,"internal_node_id":"0.0-2.0-0.9"},{"rt":1072,"stimulus":"images/Dog/With_Backgrounds/difficulty1_image1.png","response":4,"category":"Dog","background_difficulty":"1","image_path":"images/Dog/With_Backgrounds/difficulty1_image1.png","trial_type":"image-button-response","trial_index":12,"time_elapsed":19358,"internal_node_id":"0.0-2.0-0.10"},{"rt":1443,"stimulus":"images/Tree/With_Backgrounds/difficulty4_image5.png","response":6,"category":"Tree","background_difficulty":"4","image_path":"images/Tree/With_Backgrounds/difficulty4_image5.png","trial_type":"image-button-response","trial_index":13,"time_elapsed":20802,"internal_node_id":"0.0-2.0-0.11"},{"rt":1883,"stimulus":"images/Boat/With_Backgrounds/difficulty7_image7.png","response":0,"category":"Boat","background_difficulty":"7","image_path":"images/Boat/With_Backgrounds/difficulty7_image7.png","trial_type":"image-button-response","trial_index":14,"time_elapsed":22686,"internal_node_id":"0.0-2.0-0.12"},{"rt":2369,"stimulus":"images/Human/With_Backgrounds/difficulty8_image4.png","response":5,"category":"Human","background_difficulty":"8","image_path":"images/Human/With_Backgrounds/difficulty8_image4.png","trial_type":"image-button-response","trial_index":15,"time_elapsed":25056,"internal_node_id":"0.0-2.0-0.13"},{"rt":720,"stimulus":"images/Human/With_Backgrounds/difficulty3_image3.png","response":5,"category":"Human","background_difficulty":"3","image_path":"images/Human/With_Backgrounds/difficulty3_image3.png","trial_type":"image-button-response","trial_index":16,"time_elapsed":25778,"internal_node_id":"0.0-2.0-0.14"},{"rt":703,"stimulus":"images/Human/With_Backgrounds/difficulty2_image5.png","response":5,"category":"Human","background_difficulty":"2","image_path":"images/Human/With_Backgrounds/difficulty2_image5.png","trial_type":"image-button-response","trial_index":17,"time_elapsed":26484,"internal_node_id":"0.0-2.0-0.15"},{"rt":1254,"stimulus":"images/Boat/With_Backgrounds/difficulty1_image3.png","response":0,"category":"Boat","background_difficulty":"1","image_path":"images/Boat/With_Backgrounds/difficulty1_image3.png","trial_type":"image-button-response","trial_index":18,"time_elapsed":27740,"internal_node_id":"0.0-2.0-0.16"},{"rt":586,"stimulus":"images/Human/With_Backgrounds/difficulty0_image9.png","response":0,"category":"Human","background_difficulty":"0","image_path":"images/Human/With_Backgrounds/difficulty0_image9.png","trial_type":"image-button-response","trial_index":19,"time_elapsed":28328,"internal_node_id":"0.0-2.0-0.17"},{"rt":1537,"stimulus":"images/Car/With_Backgrounds/difficulty7_image0.png","response":2,"category":"Car","background_difficulty":"7","image_path":"images/Car/With_Backgrounds/difficulty7_image0.png","trial_type":"image-button-response","trial_index":20,"time_elapsed":29867,"internal_node_id":"0.0-2.0-0.18"},{"rt":949,"stimulus":"images/Human/With_Backgrounds/difficulty1_image2.png","response":5,"category":"Human","background_difficulty":"1","image_path":"images/Human/With_Backgrounds/difficulty1_image2.png","trial_type":"image-button-response","trial_index":21,"time_elapsed":30818,"internal_node_id":"0.0-2.0-0.19"},{"rt":1103,"stimulus":"images/Dog/With_Backgrounds/difficulty0_image8.png","response":4,"category":"Dog","background_difficulty":"0","image_path":"images/Dog/With_Backgrounds/difficulty0_image8.png","trial_type":"image-button-response","trial_index":22,"time_elapsed":31922,"internal_node_id":"0.0-2.0-0.20"},{"rt":1168,"stimulus":"images/Broccoli/With_Backgrounds/difficulty2_image1.png","response":1,"category":"Broccoli","background_difficulty":"2","image_path":"images/Broccoli/With_Backgrounds/difficulty2_image1.png","trial_type":"image-button-response","trial_index":23,"time_elapsed":33092,"internal_node_id":"0.0-2.0-0.21"},{"rt":1276,"stimulus":"images/Cat/With_Backgrounds/difficulty3_image4.png","response":3,"category":"Cat","background_difficulty":"3","image_path":"images/Cat/With_Backgrounds/difficulty3_image4.png","trial_type":"image-button-response","trial_index":24,"time_elapsed":34370,"internal_node_id":"0.0-2.0-0.22"},{"rt":1177,"stimulus":"images/Broccoli/With_Backgrounds/difficulty7_image4.png","response":1,"category":"Broccoli","background_difficulty":"7","image_path":"images/Broccoli/With_Backgrounds/difficulty7_image4.png","trial_type":"image-button-response","trial_index":25,"time_elapsed":35548,"internal_node_id":"0.0-2.0-0.23"},{"rt":1111,"stimulus":"images/Dog/With_Backgrounds/difficulty5_image2.png","response":4,"category":"Dog","background_difficulty":"5","image_path":"images/Dog/With_Backgrounds/difficulty5_image2.png","trial_type":"image-button-response","trial_index":26,"time_elapsed":36662,"internal_node_id":"0.0-2.0-0.24"},{"rt":2164,"stimulus":"images/Car/With_Backgrounds/difficulty6_image6.png","response":2,"category":"Car","background_difficulty":"6","image_path":"images/Car/With_Backgrounds/difficulty6_image6.png","trial_type":"image-button-response","trial_index":27,"time_elapsed":38828,"internal_node_id":"0.0-2.0-0.25"},{"rt":1789,"stimulus":"images/Cat/With_Backgrounds/difficulty6_image5.png","response":3,"category":"Cat","background_difficulty":"6","image_path":"images/Cat/With_Backgrounds/difficulty6_image5.png","trial_type":"image-button-response","trial_index":28,"time_elapsed":40619,"internal_node_id":"0.0-2.0-0.26"},{"rt":1450,"stimulus":"images/Other/With_Backgrounds/difficulty5_image0.png","response":7,"category":"Other","background_difficulty":"5","image_path":"images/Other/With_Backgrounds/difficulty5_image0.png","trial_type":"image-button-response","trial_index":29,"time_elapsed":42070,"internal_node_id":"0.0-2.0-0.27"},{"rt":1099,"stimulus":"images/Dog/With_Backgrounds/difficulty2_image4.png","response":4,"category":"Dog","background_difficulty":"2","image_path":"images/Dog/With_Backgrounds/difficulty2_image4.png","trial_type":"image-button-response","trial_index":30,"time_elapsed":43171,"internal_node_id":"0.0-2.0-0.28"},{"rt":1528,"stimulus":"images/Broccoli/With_Backgrounds/difficulty5_image9.png","response":1,"category":"Broccoli","background_difficulty":"5","image_path":"images/Broccoli/With_Backgrounds/difficulty5_image9.png","trial_type":"image-button-response","trial_index":31,"time_elapsed":44700,"internal_node_id":"0.0-2.0-0.29"},{"rt":1332,"stimulus":"images/Car/With_Backgrounds/difficulty2_image7.png","response":2,"category":"Car","background_difficulty":"2","image_path":"images/Car/With_Backgrounds/difficulty2_image7.png","trial_type":"image-button-response","trial_index":32,"time_elapsed":46034,"internal_node_id":"0.0-2.0-0.30"},{"rt":1018,"stimulus":"images/Dog/With_Backgrounds/difficulty8_image7.png","response":4,"category":"Dog","background_difficulty":"8","image_path":"images/Dog/With_Backgrounds/difficulty8_image7.png","trial_type":"image-button-response","trial_index":33,"time_elapsed":47056,"internal_node_id":"0.0-2.0-0.31"},{"rt":1175,"stimulus":"images/Human/With_Backgrounds/difficulty7_image0.png","response":5,"category":"Human","background_difficulty":"7","image_path":"images/Human/With_Backgrounds/difficulty7_image0.png","trial_type":"image-button-response","trial_index":34,"time_elapsed":48232,"internal_node_id":"0.0-2.0-0.32"},{"rt":1537,"stimulus":"images/Other/With_Backgrounds/difficulty1_image1.png","response":7,"category":"Other","background_difficulty":"1","image_path":"images/Other/With_Backgrounds/difficulty1_image1.png","trial_type":"image-button-response","trial_index":35,"time_elapsed":49771,"internal_node_id":"0.0-2.0-0.33"},{"rt":923,"stimulus":"images/Human/With_Backgrounds/difficulty5_image1.png","response":5,"category":"Human","background_difficulty":"5","image_path":"images/Human/With_Backgrounds/difficulty5_image1.png","trial_type":"image-button-response","trial_index":36,"time_elapsed":50696,"internal_node_id":"0.0-2.0-0.34"},{"rt":1136,"stimulus":"images/Car/With_Backgrounds/difficulty3_image8.png","response":2,"category":"Car","background_difficulty":"3","image_path":"images/Car/With_Backgrounds/difficulty3_image8.png","trial_type":"image-button-response","trial_index":37,"time_elapsed":51834,"internal_node_id":"0.0-2.0-0.35"},{"rt":1161,"stimulus":"images/Boat/With_Backgrounds/difficulty4_image8.png","response":0,"category":"Boat","background_difficulty":"4","image_path":"images/Boat/With_Backgrounds/difficulty4_image8.png","trial_type":"image-button-response","trial_index":38,"time_elapsed":52996,"internal_node_id":"0.0-2.0-0.36"},{"rt":1528,"stimulus":"images/Human/With_Backgrounds/difficulty4_image7.png","response":5,"category":"Human","background_difficulty":"4","image_path":"images/Human/With_Backgrounds/difficulty4_image7.png","trial_type":"image-button-response","trial_index":39,"time_elapsed":54526,"internal_node_id":"0.0-2.0-0.37"},{"rt":1952,"stimulus":"images/Car/With_Backgrounds/difficulty1_image2.png","response":2,"category":"Car","background_difficulty":"1","image_path":"images/Car/With_Backgrounds/difficulty1_image2.png","trial_type":"image-button-response","trial_index":40,"time_elapsed":56480,"internal_node_id":"0.0-2.0-0.38"},{"rt":916,"stimulus":"images/Broccoli/With_Backgrounds/difficulty0_image3.png","response":1,"category":"Broccoli","background_difficulty":"0","image_path":"images/Broccoli/With_Backgrounds/difficulty0_image3.png","trial_type":"image-button-response","trial_index":41,"time_elapsed":57398,"internal_node_id":"0.0-2.0-0.39"},{"rt":1427,"stimulus":"images/Boat/With_Backgrounds/difficulty8_image6.png","response":0,"category":"Boat","background_difficulty":"8","image_path":"images/Boat/With_Backgrounds/difficulty8_image6.png","trial_type":"image-button-response","trial_index":42,"time_elapsed":58826,"internal_node_id":"0.0-2.0-0.40"},{"rt":1474,"stimulus":"images/Cat/With_Backgrounds/difficulty1_image9.png","response":3,"category":"Cat","background_difficulty":"1","image_path":"images/Cat/With_Backgrounds/difficulty1_image9.png","trial_type":"image-button-response","trial_index":43,"time_elapsed":60302,"internal_node_id":"0.0-2.0-0.41"},{"rt":1381,"stimulus":"images/Boat/With_Backgrounds/difficulty2_image1.png","response":0,"category":"Boat","background_difficulty":"2","image_path":"images/Boat/With_Backgrounds/difficulty2_image1.png","trial_type":"image-button-response","trial_index":44,"time_elapsed":61685,"internal_node_id":"0.0-2.0-0.42"},{"rt":994,"stimulus":"images/Broccoli/With_Backgrounds/difficulty6_image6.png","response":1,"category":"Broccoli","background_difficulty":"6","image_path":"images/Broccoli/With_Backgrounds/difficulty6_image6.png","trial_type":"image-button-response","trial_index":45,"time_elapsed":62681,"internal_node_id":"0.0-2.0-0.43"},{"rt":1193,"stimulus":"images/Other/With_Backgrounds/difficulty0_image3.png","response":7,"category":"Other","background_difficulty":"0","image_path":"images/Other/With_Backgrounds/difficulty0_image3.png","trial_type":"image-button-response","trial_index":46,"time_elapsed":63876,"internal_node_id":"0.0-2.0-0.44"},{"rt":1503,"stimulus":"images/Tree/With_Backgrounds/difficulty3_image4.png","response":6,"category":"Tree","background_difficulty":"3","image_path":"images/Tree/With_Backgrounds/difficulty3_image4.png","trial_type":"image-button-response","trial_index":47,"time_elapsed":65381,"internal_node_id":"0.0-2.0-0.45"},{"rt":1757,"stimulus":"images/Boat/With_Backgrounds/difficulty5_image9.png","response":0,"category":"Boat","background_difficulty":"5","image_path":"images/Boat/With_Backgrounds/difficulty5_image9.png","trial_type":"image-button-response","trial_index":48,"time_elapsed":67139,"internal_node_id":"0.0-2.0-0.46"},{"rt":1961,"stimulus":"images/Broccoli/With_Backgrounds/difficulty3_image2.png","response":1,"category":"Broccoli","background_difficulty":"3","image_path":"images/Broccoli/With_Backgrounds/difficulty3_image2.png","trial_type":"image-button-response","trial_index":49,"time_elapsed":69101,"internal_node_id":"0.0-2.0-0.47"},{"rt":1215,"stimulus":"images/Other/With_Backgrounds/difficulty2_image9.png","response":7,"category":"Other","background_difficulty":"2","image_path":"images/Other/With_Backgrounds/difficulty2_image9.png","trial_type":"image-button-response","trial_index":50,"time_elapsed":70317,"internal_node_id":"0.0-2.0-0.48"},{"rt":1168,"stimulus":"images/Cat/With_Backgrounds/difficulty5_image2.png","response":3,"category":"Cat","background_difficulty":"5","image_path":"images/Cat/With_Backgrounds/difficulty5_image2.png","trial_type":"image-button-response","trial_index":51,"time_elapsed":71486,"internal_node_id":"0.0-2.0-0.49"},{"rt":1647,"stimulus":"images/Boat/With_Backgrounds/difficulty6_image5.png","response":0,"category":"Boat","background_difficulty":"6","image_path":"images/Boat/With_Backgrounds/difficulty6_image5.png","trial_type":"image-button-response","trial_index":52,"time_elapsed":73134,"internal_node_id":"0.0-2.0-0.50"},{"rt":1270,"stimulus":"images/Dog/With_Backgrounds/difficulty6_image9.png","response":4,"category":"Dog","background_difficulty":"6","image_path":"images/Dog/With_Backgrounds/difficulty6_image9.png","trial_type":"image-button-response","trial_index":53,"time_elapsed":74406,"internal_node_id":"0.0-2.0-0.51"},{"rt":1167,"stimulus":"images/Tree/With_Backgrounds/difficulty5_image3.png","response":6,"category":"Tree","background_difficulty":"5","image_path":"images/Tree/With_Backgrounds/difficulty5_image3.png","trial_type":"image-button-response","trial_index":54,"time_elapsed":75575,"internal_node_id":"0.0-2.0-0.52"},{"rt":595,"stimulus":"images/Tree/With_Backgrounds/difficulty7_image0.png","response":6,"category":"Tree","background_difficulty":"7","image_path":"images/Tree/With_Backgrounds/difficulty7_image0.png","trial_type":"image-button-response","trial_index":55,"time_elapsed":76171,"internal_node_id":"0.0-2.0-0.53"},{"rt":618,"stimulus":"images/Tree/With_Backgrounds/difficulty0_image9.png","response":6,"category":"Tree","background_difficulty":"0","image_path":"images/Tree/With_Backgrounds/difficulty0_image9.png","trial_type":"image-button-response","trial_index":56,"time_elapsed":76791,"internal_node_id":"0.0-2.0-0.54"},{"rt":1530,"stimulus":"images/Cat/With_Backgrounds/difficulty7_image1.png","response":3,"category":"Cat","background_difficulty":"7","image_path":"images/Cat/With_Backgrounds/difficulty7_image1.png","trial_type":"image-button-response","trial_index":57,"time_elapsed":78322,"internal_node_id":"0.0-2.0-0.55"},{"rt":1395,"stimulus":"images/Other/With_Backgrounds/difficulty3_image5.png","response":7,"category":"Other","background_difficulty":"3","image_path":"images/Other/With_Backgrounds/difficulty3_image5.png","trial_type":"image-button-response","trial_index":58,"time_elapsed":79719,"internal_node_id":"0.0-2.0-0.56"},{"rt":838,"stimulus":"images/Tree/With_Backgrounds/difficulty2_image7.png","response":6,"category":"Tree","background_difficulty":"2","image_path":"images/Tree/With_Backgrounds/difficulty2_image7.png","trial_type":"image-button-response","trial_index":59,"time_elapsed":80559,"internal_node_id":"0.0-2.0-0.57"},{"rt":941,"stimulus":"images/Other/With_Backgrounds/difficulty6_image8.png","response":7,"category":"Other","background_difficulty":"6","image_path":"images/Other/With_Backgrounds/difficulty6_image8.png","trial_type":"image-button-response","trial_index":60,"time_elapsed":81502,"internal_node_id":"0.0-2.0-0.58"},{"rt":822,"stimulus":"images/Human/With_Backgrounds/difficulty6_image6.png","response":5,"category":"Human","background_difficulty":"6","image_path":"images/Human/With_Backgrounds/difficulty6_image6.png","trial_type":"image-button-response","trial_index":61,"time_elapsed":82325,"internal_node_id":"0.0-2.0-0.59"},{"rt":1176,"stimulus":"images/Cat/With_Backgrounds/difficulty8_image3.png","response":3,"category":"Cat","background_difficulty":"8","image_path":"images/Cat/With_Backgrounds/difficulty8_image3.png","trial_type":"image-button-response","trial_index":62,"time_elapsed":83502,"internal_node_id":"0.0-2.0-0.60"},{"rt":1232,"stimulus":"images/Other/With_Backgrounds/difficulty7_image4.png","response":7,"category":"Other","background_difficulty":"7","image_path":"images/Other/With_Backgrounds/difficulty7_image4.png","trial_type":"image-button-response","trial_index":63,"time_elapsed":84736,"internal_node_id":"0.0-2.0-0.61"},{"rt":1071,"stimulus":"images/Dog/With_Backgrounds/difficulty3_image5.png","response":4,"category":"Dog","background_difficulty":"3","image_path":"images/Dog/With_Backgrounds/difficulty3_image5.png","trial_type":"image-button-response","trial_index":64,"time_elapsed":85808,"internal_node_id":"0.0-2.0-0.62"},{"rt":1325,"stimulus":"images/Tree/With_Backgrounds/difficulty8_image1.png","response":6,"category":"Tree","background_difficulty":"8","image_path":"images/Tree/With_Backgrounds/difficulty8_image1.png","trial_type":"image-button-response","trial_index":65,"time_elapsed":87135,"internal_node_id":"0.0-2.0-0.63"},{"rt":1294,"stimulus":"images/Cat/With_Backgrounds/difficulty4_image7.png","response":3,"category":"Cat","background_difficulty":"4","image_path":"images/Cat/With_Backgrounds/difficulty4_image7.png","trial_type":"image-button-response","trial_index":66,"time_elapsed":88431,"internal_node_id":"0.0-2.0-0.64"},{"rt":1389,"stimulus":"images/Broccoli/With_Backgrounds/difficulty4_image0.png","response":1,"category":"Broccoli","background_difficulty":"4","image_path":"images/Broccoli/With_Backgrounds/difficulty4_image0.png","trial_type":"image-button-response","trial_index":67,"time_elapsed":89822,"internal_node_id":"0.0-2.0-0.65"},{"rt":1214,"stimulus":"images/Cat/With_Backgrounds/difficulty0_image8.png","response":3,"category":"Cat","background_difficulty":"0","image_path":"images/Cat/With_Backgrounds/difficulty0_image8.png","trial_type":"image-button-response","trial_index":68,"time_elapsed":91037,"internal_node_id":"0.0-2.0-0.66"},{"rt":648,"stimulus":"images/Cat/With_Backgrounds/difficulty2_image6.png","response":3,"category":"Cat","background_difficulty":"2","image_path":"images/Cat/With_Backgrounds/difficulty2_image6.png","trial_type":"image-button-response","trial_index":69,"time_elapsed":91687,"internal_node_id":"0.0-2.0-0.67"},{"rt":1083,"stimulus":"images/Other/With_Backgrounds/difficulty4_image7.png","response":7,"category":"Other","background_difficulty":"4","image_path":"images/Other/With_Backgrounds/difficulty4_image7.png","trial_type":"image-button-response","trial_index":70,"time_elapsed":92771,"internal_node_id":"0.0-2.0-0.68"},{"rt":1340,"stimulus":"images/Tree/With_Backgrounds/difficulty6_image8.png","response":6,"category":"Tree","background_difficulty":"6","image_path":"images/Tree/With_Backgrounds/difficulty6_image8.png","trial_type":"image-button-response","trial_index":71,"time_elapsed":94113,"internal_node_id":"0.0-2.0-0.69"},{"rt":2274,"stimulus":"images/Other/With_Backgrounds/difficulty8_image6.png","response":1,"category":"Other","background_difficulty":"8","image_path":"images/Other/With_Backgrounds/difficulty8_image6.png","trial_type":"image-button-response","trial_index":72,"time_elapsed":96389,"internal_node_id":"0.0-2.0-0.70"},{"rt":1253,"stimulus":"images/Boat/With_Backgrounds/difficulty3_image0.png","response":0,"category":"Boat","background_difficulty":"3","image_path":"images/Boat/With_Backgrounds/difficulty3_image0.png","trial_type":"image-button-response","trial_index":73,"time_elapsed":97644,"internal_node_id":"0.0-2.0-0.71"},{"rt":995,"stimulus":["<h2>Press the button below to end experiment.</h2><p>Thank you for participating!</p>"],"response":0,"trial_type":"html-button-response","trial_index":74,"time_elapsed":98640,"internal_node_id":"0.0-3.0"}]