[{"success":true,"timeout":false,"failed_images":[],"failed_audio":[],"failed_video":[],"trial_type":"preload","trial_index":0,"time_elapsed":712,"internal_node_id":"0.0-0.0"},{"rt":2868,"stimulus":["<h2>Noisy background image classification</h2><p>In this experiment you will briefly see images on top of colored squares of various sizes.</p><p>Your task is to report what each image is, selecting \"None of the Above\" if none of the given options are correct.</p> <p>The possible options are <strong>Boat</strong>, <strong>Broccoli</strong>, <strong>Car</strong>, <strong>Cat</strong>, <strong>Dog</strong>, <strong>Human</strong>, <strong>Tree</strong>, and <strong>None of the Above</strong>"],"response":0,"trial_type":"html-button-response","trial_index":1,"time_elapsed":3582,"internal_node_id":"0.0-1.0"},{"rt":6607,"stimulus":"images/Tree/With_Backgrounds/difficulty6_image1.png","response":7,"category":"Tree","background_difficulty":"6","image_path":"images/Tree/With_Backgrounds/difficulty6_image1.png","trial_type":"image-button-response","trial_index":2,"time_elapsed":10200,"internal_node_id":"0.0-2.0-0.0"},{"rt":6771,"stimulus":"images/Other/With_Backgrounds/difficulty0_image2.png","response":7,"category":"Other","background_difficulty":"0","image_path":"images/Other/With_Backgrounds/difficulty0_image2.png","trial_type":"image-button-response","trial_index":3,"time_elapsed":16972,"internal_node_id":"0.0-2.0-0.1"},{"rt":1758,"stimulus":"images/Cat/With_Backgrounds/difficulty7_image8.png","response":3,"category":"Cat","background_difficulty":"7","image_path":"images/Cat/With_Backgrounds/difficulty7_image8.png","trial_type":"image-button-response","trial_index":4,"time_elapsed":18731,"internal_node_id":"0.0-2.0-0.2"},{"rt":1605,"stimulus":"images/Broccoli/With_Backgrounds/difficulty2_image9.png","response":1,"category":"Broccoli","background_difficulty":"2","image_path":"images/Broccoli/With_Backgrounds/difficulty2_image9.png","trial_type":"image-button-response","trial_index":5,"time_elapsed":20338,"internal_node_id":"0.0-2.0-0.3"},{"rt":1675,"stimulus":"images/Car/With_Backgrounds/difficulty8_image2.png","response":2,"category":"Car","background_difficulty":"8","image_path":"images/Car/With_Backgrounds/difficulty8_image2.png","trial_type":"image-button-response","trial_index":6,"time_elapsed":22015,"internal_node_id":"0.0-2.0-0.4"},{"rt":2407,"stimulus":"images/Tree/With_Backgrounds/difficulty7_image5.png","response":6,"category":"Tree","background_difficulty":"7","image_path":"images/Tree/With_Backgrounds/difficulty7_image5.png","trial_type":"image-button-response","trial_index":7,"time_elapsed":24423,"internal_node_id":"0.0-2.0-0.5"},{"rt":1446,"stimulus":"images/Dog/With_Backgrounds/difficulty8_image5.png","response":4,"category":"Dog","background_difficulty":"8","image_path":"images/Dog/With_Backgrounds/difficulty8_image5.png","trial_type":"image-button-response","trial_index":8,"time_elapsed":25871,"internal_node_id":"0.0-2.0-0.6"},{"rt":1500,"stimulus":"images/Cat/With_Backgrounds/difficulty3_image9.png","response":3,"category":"Cat","background_difficulty":"3","image_path":"images/Cat/With_Backgrounds/difficulty3_image9.png","trial_type":"image-button-response","trial_index":9,"time_elapsed":27372,"internal_node_id":"0.0-2.0-0.7"},{"rt":3091,"stimulus":"images/Other/With_Backgrounds/difficulty6_image8.png","response":7,"category":"Other","background_difficulty":"6","image_path":"images/Other/With_Backgrounds/difficulty6_image8.png","trial_type":"image-button-response","trial_index":10,"time_elapsed":30465,"internal_node_id":"0.0-2.0-0.8"},{"rt":1517,"stimulus":"images/Dog/With_Backgrounds/difficulty6_image2.png","response":4,"category":"Dog","background_difficulty":"6","image_path":"images/Dog/With_Backgrounds/difficulty6_image2.png","trial_type":"image-button-response","trial_index":11,"time_elapsed":31984,"internal_node_id":"0.0-2.0-0.9"},{"rt":2121,"stimulus":"images/Tree/With_Backgrounds/difficulty1_image6.png","response":6,"category":"Tree","background_difficulty":"1","image_path":"images/Tree/With_Backgrounds/difficulty1_image6.png","trial_type":"image-button-response","trial_index":12,"time_elapsed":34107,"internal_node_id":"0.0-2.0-0.10"},{"rt":1230,"stimulus":"images/Dog/With_Backgrounds/difficulty1_image9.png","response":4,"category":"Dog","background_difficulty":"1","image_path":"images/Dog/With_Backgrounds/difficulty1_image9.png","trial_type":"image-button-response","trial_index":13,"time_elapsed":35338,"internal_node_id":"0.0-2.0-0.11"},{"rt":942,"stimulus":"images/Human/With_Backgrounds/difficulty0_image3.png","response":5,"category":"Human","background_difficulty":"0","image_path":"images/Human/With_Backgrounds/difficulty0_image3.png","trial_type":"image-button-response","trial_index":14,"time_elapsed":36282,"internal_node_id":"0.0-2.0-0.12"},{"rt":2218,"stimulus":"images/Other/With_Backgrounds/difficulty5_image4.png","response":7,"category":"Other","background_difficulty":"5","image_path":"images/Other/With_Backgrounds/difficulty5_image4.png","trial_type":"image-button-response","trial_index":15,"time_elapsed":38501,"internal_node_id":"0.0-2.0-0.13"},{"rt":43961,"stimulus":"images/Human/With_Backgrounds/difficulty1_image6.png","response":5,"category":"Human","background_difficulty":"1","image_path":"images/Human/With_Backgrounds/difficulty1_image6.png","trial_type":"image-button-response","trial_index":16,"time_elapsed":82463,"internal_node_id":"0.0-2.0-0.14"},{"rt":2071,"stimulus":"images/Car/With_Backgrounds/difficulty6_image4.png","response":2,"category":"Car","background_difficulty":"6","image_path":"images/Car/With_Backgrounds/difficulty6_image4.png","trial_type":"image-button-response","trial_index":17,"time_elapsed":84536,"internal_node_id":"0.0-2.0-0.15"},{"rt":1551,"stimulus":"images/Cat/With_Backgrounds/difficulty1_image0.png","response":3,"category":"Cat","background_difficulty":"1","image_path":"images/Cat/With_Backgrounds/difficulty1_image0.png","trial_type":"image-button-response","trial_index":18,"time_elapsed":86088,"internal_node_id":"0.0-2.0-0.16"},{"rt":2107,"stimulus":"images/Other/With_Backgrounds/difficulty3_image7.png","response":7,"category":"Other","background_difficulty":"3","image_path":"images/Other/With_Backgrounds/difficulty3_image7.png","trial_type":"image-button-response","trial_index":19,"time_elapsed":88196,"internal_node_id":"0.0-2.0-0.17"},{"rt":1512,"stimulus":"images/Cat/With_Backgrounds/difficulty0_image1.png","response":3,"category":"Cat","background_difficulty":"0","image_path":"images/Cat/With_Backgrounds/difficulty0_image1.png","trial_type":"image-button-response","trial_index":20,"time_elapsed":89709,"internal_node_id":"0.0-2.0-0.18"},{"rt":1094,"stimulus":"images/Cat/With_Backgrounds/difficulty2_image3.png","response":3,"category":"Cat","background_difficulty":"2","image_path":"images/Cat/With_Backgrounds/difficulty2_image3.png","trial_type":"image-button-response","trial_index":21,"time_elapsed":90804,"internal_node_id":"0.0-2.0-0.19"},{"rt":1565,"stimulus":"images/Car/With_Backgrounds/difficulty2_image6.png","response":2,"category":"Car","background_difficulty":"2","image_path":"images/Car/With_Backgrounds/difficulty2_image6.png","trial_type":"image-button-response","trial_index":22,"time_elapsed":92371,"internal_node_id":"0.0-2.0-0.20"},{"rt":2089,"stimulus":"images/Dog/With_Backgrounds/difficulty3_image8.png","response":4,"category":"Dog","background_difficulty":"3","image_path":"images/Dog/With_Backgrounds/difficulty3_image8.png","trial_type":"image-button-response","trial_index":23,"time_elapsed":94461,"internal_node_id":"0.0-2.0-0.21"},{"rt":1614,"stimulus":"images/Broccoli/With_Backgrounds/difficulty3_image4.png","response":1,"category":"Broccoli","background_difficulty":"3","image_path":"images/Broccoli/With_Backgrounds/difficulty3_image4.png","trial_type":"image-button-response","trial_index":24,"time_elapsed":96077,"internal_node_id":"0.0-2.0-0.22"},{"rt":1947,"stimulus":"images/Cat/With_Backgrounds/difficulty4_image4.png","response":3,"category":"Cat","background_difficulty":"4","image_path":"images/Cat/With_Backgrounds/difficulty4_image4.png","trial_type":"image-button-response","trial_index":25,"time_elapsed":98025,"internal_node_id":"0.0-2.0-0.23"},{"rt":1578,"stimulus":"images/Boat/With_Backgrounds/difficulty0_image4.png","response":0,"category":"Boat","background_difficulty":"0","image_path":"images/Boat/With_Backgrounds/difficulty0_image4.png","trial_type":"image-button-response","trial_index":26,"time_elapsed":99605,"internal_node_id":"0.0-2.0-0.24"},{"rt":1087,"stimulus":"images/Broccoli/With_Backgrounds/difficulty0_image3.png","response":1,"category":"Broccoli","background_difficulty":"0","image_path":"images/Broccoli/With_Backgrounds/difficulty0_image3.png","trial_type":"image-button-response","trial_index":27,"time_elapsed":100693,"internal_node_id":"0.0-2.0-0.25"},{"rt":2232,"stimulus":"images/Tree/With_Backgrounds/difficulty2_image2.png","response":6,"category":"Tree","background_difficulty":"2","image_path":"images/Tree/With_Backgrounds/difficulty2_image2.png","trial_type":"image-button-response","trial_index":28,"time_elapsed":102926,"internal_node_id":"0.0-2.0-0.26"},{"rt":1455,"stimulus":"images/Cat/With_Backgrounds/difficulty6_image5.png","response":3,"category":"Cat","background_difficulty":"6","image_path":"images/Cat/With_Backgrounds/difficulty6_image5.png","trial_type":"image-button-response","trial_index":29,"time_elapsed":104383,"internal_node_id":"0.0-2.0-0.27"},{"rt":1739,"stimulus":"images/Car/With_Backgrounds/difficulty3_image0.png","response":2,"category":"Car","background_difficulty":"3","image_path":"images/Car/With_Backgrounds/difficulty3_image0.png","trial_type":"image-button-response","trial_index":30,"time_elapsed":106123,"internal_node_id":"0.0-2.0-0.28"},{"rt":1356,"stimulus":"images/Broccoli/With_Backgrounds/difficulty6_image0.png","response":1,"category":"Broccoli","background_difficulty":"6","image_path":"images/Broccoli/With_Backgrounds/difficulty6_image0.png","trial_type":"image-button-response","trial_index":31,"time_elapsed":107481,"internal_node_id":"0.0-2.0-0.29"},{"rt":939,"stimulus":"images/Broccoli/With_Backgrounds/difficulty7_image1.png","response":1,"category":"Broccoli","background_difficulty":"7","image_path":"images/Broccoli/With_Backgrounds/difficulty7_image1.png","trial_type":"image-button-response","trial_index":32,"time_elapsed":108421,"internal_node_id":"0.0-2.0-0.30"},{"rt":1307,"stimulus":"images/Human/With_Backgrounds/difficulty8_image9.png","response":5,"category":"Human","background_difficulty":"8","image_path":"images/Human/With_Backgrounds/difficulty8_image9.png","trial_type":"image-button-response","trial_index":33,"time_elapsed":109729,"internal_node_id":"0.0-2.0-0.31"},{"rt":1789,"stimulus":"images/Boat/With_Backgrounds/difficulty5_image3.png","response":0,"category":"Boat","background_difficulty":"5","image_path":"images/Boat/With_Backgrounds/difficulty5_image3.png","trial_type":"image-button-response","trial_index":34,"time_elapsed":111519,"internal_node_id":"0.0-2.0-0.32"},{"rt":1596,"stimulus":"images/Cat/With_Backgrounds/difficulty5_image6.png","response":3,"category":"Cat","background_difficulty":"5","image_path":"images/Cat/With_Backgrounds/difficulty5_image6.png","trial_type":"image-button-response","trial_index":35,"time_elapsed":113116,"internal_node_id":"0.0-2.0-0.33"},{"rt":1624,"stimulus":"images/Tree/With_Backgrounds/difficulty0_image4.png","response":6,"category":"Tree","background_difficulty":"0","image_path":"images/Tree/With_Backgrounds/difficulty0_image4.png","trial_type":"image-button-response","trial_index":36,"time_elapsed":114742,"internal_node_id":"0.0-2.0-0.34"},{"rt":1871,"stimulus":"images/Boat/With_Backgrounds/difficulty4_image8.png","response":0,"category":"Boat","background_difficulty":"4","image_path":"images/Boat/With_Backgrounds/difficulty4_image8.png","trial_type":"image-button-response","trial_index":37,"time_elapsed":116614,"internal_node_id":"0.0-2.0-0.35"},{"rt":1313,"stimulus":"images/Boat/With_Backgrounds/difficulty8_image9.png","response":0,"category":"Boat","background_difficulty":"8","image_path":"images/Boat/With_Backgrounds/difficulty8_image9.png","trial_type":"image-button-response","trial_index":38,"time_elapsed":117928,"internal_node_id":"0.0-2.0-0.36"},{"rt":1465,"stimulus":"images/Broccoli/With_Backgrounds/difficulty5_image8.png","response":1,"category":"Broccoli","background_difficulty":"5","image_path":"images/Broccoli/With_Backgrounds/difficulty5_image8.png","trial_type":"image-button-response","trial_index":39,"time_elapsed":119394,"internal_node_id":"0.0-2.0-0.37"},{"rt":1483,"stimulus":"images/Boat/With_Backgrounds/difficulty6_image5.png","response":0,"category":"Boat","background_difficulty":"6","image_path":"images/Boat/With_Backgrounds/difficulty6_image5.png","trial_type":"image-button-response","trial_index":40,"time_elapsed":120879,"internal_node_id":"0.0-2.0-0.38"},{"rt":1614,"stimulus":"images/Dog/With_Backgrounds/difficulty0_image0.png","response":4,"category":"Dog","background_difficulty":"0","image_path":"images/Dog/With_Backgrounds/difficulty0_image0.png","trial_type":"image-button-response","trial_index":41,"time_elapsed":122494,"internal_node_id":"0.0-2.0-0.39"},{"rt":1014,"stimulus":"images/Dog/With_Backgrounds/difficulty7_image1.png","response":4,"category":"Dog","background_difficulty":"7","image_path":"images/Dog/With_Backgrounds/difficulty7_image1.png","trial_type":"image-button-response","trial_index":42,"time_elapsed":123509,"internal_node_id":"0.0-2.0-0.40"},{"rt":1094,"stimulus":"images/Human/With_Backgrounds/difficulty3_image7.png","response":5,"category":"Human","background_difficulty":"3","image_path":"images/Human/With_Backgrounds/difficulty3_image7.png","trial_type":"image-button-response","trial_index":43,"time_elapsed":124604,"internal_node_id":"0.0-2.0-0.41"},{"rt":1127,"stimulus":"images/Broccoli/With_Backgrounds/difficulty4_image5.png","response":1,"category":"Broccoli","background_difficulty":"4","image_path":"images/Broccoli/With_Backgrounds/difficulty4_image5.png","trial_type":"image-button-response","trial_index":44,"time_elapsed":125732,"internal_node_id":"0.0-2.0-0.42"},{"rt":1215,"stimulus":"images/Other/With_Backgrounds/difficulty8_image5.png","response":7,"category":"Other","background_difficulty":"8","image_path":"images/Other/With_Backgrounds/difficulty8_image5.png","trial_type":"image-button-response","trial_index":45,"time_elapsed":126949,"internal_node_id":"0.0-2.0-0.43"},{"rt":1720,"stimulus":"images/Car/With_Backgrounds/difficulty1_image9.png","response":2,"category":"Car","background_difficulty":"1","image_path":"images/Car/With_Backgrounds/difficulty1_image9.png","trial_type":"image-button-response","trial_index":46,"time_elapsed":128671,"internal_node_id":"0.0-2.0-0.44"},{"rt":1312,"stimulus":"images/Human/With_Backgrounds/difficulty7_image5.png","response":5,"category":"Human","background_difficulty":"7","image_path":"images/Human/With_Backgrounds/difficulty7_image5.png","trial_type":"image-button-response","trial_index":47,"time_elapsed":129983,"internal_node_id":"0.0-2.0-0.45"},{"rt":1540,"stimulus":"images/Broccoli/With_Backgrounds/difficulty1_image6.png","response":1,"category":"Broccoli","background_difficulty":"1","image_path":"images/Broccoli/With_Backgrounds/difficulty1_image6.png","trial_type":"image-button-response","trial_index":48,"time_elapsed":131524,"internal_node_id":"0.0-2.0-0.46"},{"rt":1682,"stimulus":"images/Human/With_Backgrounds/difficulty6_image0.png","response":5,"category":"Human","background_difficulty":"6","image_path":"images/Human/With_Backgrounds/difficulty6_image0.png","trial_type":"image-button-response","trial_index":49,"time_elapsed":133207,"internal_node_id":"0.0-2.0-0.47"},{"rt":2025,"stimulus":"images/Other/With_Backgrounds/difficulty7_image1.png","response":7,"category":"Other","background_difficulty":"7","image_path":"images/Other/With_Backgrounds/difficulty7_image1.png","trial_type":"image-button-response","trial_index":50,"time_elapsed":135233,"internal_node_id":"0.0-2.0-0.48"},{"rt":1308,"stimulus":"images/Tree/With_Backgrounds/difficulty4_image9.png","response":6,"category":"Tree","background_difficulty":"4","image_path":"images/Tree/With_Backgrounds/difficulty4_image9.png","trial_type":"image-button-response","trial_index":51,"time_elapsed":136542,"internal_node_id":"0.0-2.0-0.49"},{"rt":1644,"stimulus":"images/Other/With_Backgrounds/difficulty1_image3.png","response":7,"category":"Other","background_difficulty":"1","image_path":"images/Other/With_Backgrounds/difficulty1_image3.png","trial_type":"image-button-response","trial_index":52,"time_elapsed":138187,"internal_node_id":"0.0-2.0-0.50"},{"rt":1498,"stimulus":"images/Dog/With_Backgrounds/difficulty4_image6.png","response":4,"category":"Dog","background_difficulty":"4","image_path":"images/Dog/With_Backgrounds/difficulty4_image6.png","trial_type":"image-button-response","trial_index":53,"time_elapsed":139686,"internal_node_id":"0.0-2.0-0.51"},{"rt":1217,"stimulus":"images/Human/With_Backgrounds/difficulty2_image1.png","response":5,"category":"Human","background_difficulty":"2","image_path":"images/Human/With_Backgrounds/difficulty2_image1.png","trial_type":"image-button-response","trial_index":54,"time_elapsed":140905,"internal_node_id":"0.0-2.0-0.52"},{"rt":1993,"stimulus":"images/Human/With_Backgrounds/difficulty4_image4.png","response":5,"category":"Human","background_difficulty":"4","image_path":"images/Human/With_Backgrounds/difficulty4_image4.png","trial_type":"image-button-response","trial_index":55,"time_elapsed":142900,"internal_node_id":"0.0-2.0-0.53"},{"rt":1330,"stimulus":"images/Boat/With_Backgrounds/difficulty2_image7.png","response":0,"category":"Boat","background_difficulty":"2","image_path":"images/Boat/With_Backgrounds/difficulty2_image7.png","trial_type":"image-button-response","trial_index":56,"time_elapsed":144231,"internal_node_id":"0.0-2.0-0.54"},{"rt":1659,"stimulus":"images/Car/With_Backgrounds/difficulty7_image7.png","response":2,"category":"Car","background_difficulty":"7","image_path":"images/Car/With_Backgrounds/difficulty7_image7.png","trial_type":"image-button-response","trial_index":57,"time_elapsed":145892,"internal_node_id":"0.0-2.0-0.55"},{"rt":1232,"stimulus":"images/Tree/With_Backgrounds/difficulty8_image7.png","response":6,"category":"Tree","background_difficulty":"8","image_path":"images/Tree/With_Backgrounds/difficulty8_image7.png","trial_type":"image-button-response","trial_index":58,"time_elapsed":147125,"internal_node_id":"0.0-2.0-0.56"},{"rt":960,"stimulus":"images/Tree/With_Backgrounds/difficulty5_image8.png","response":6,"category":"Tree","background_difficulty":"5","image_path":"images/Tree/With_Backgrounds/difficulty5_image8.png","trial_type":"image-button-response","trial_index":59,"time_elapsed":148087,"internal_node_id":"0.0-2.0-0.57"},{"rt":2193,"stimulus":"images/Other/With_Backgrounds/difficulty4_image9.png","response":7,"category":"Other","background_difficulty":"4","image_path":"images/Other/With_Backgrounds/difficulty4_image9.png","trial_type":"image-button-response","trial_index":60,"time_elapsed":150282,"internal_node_id":"0.0-2.0-0.58"},{"rt":1245,"stimulus":"images/Broccoli/With_Backgrounds/difficulty8_image7.png","response":1,"category":"Broccoli","background_difficulty":"8","image_path":"images/Broccoli/With_Backgrounds/difficulty8_image7.png","trial_type":"image-button-response","trial_index":61,"time_elapsed":151528,"internal_node_id":"0.0-2.0-0.59"},{"rt":1518,"stimulus":"images/Car/With_Backgrounds/difficulty4_image5.png","response":2,"category":"Car","background_difficulty":"4","image_path":"images/Car/With_Backgrounds/difficulty4_image5.png","trial_type":"image-button-response","trial_index":62,"time_elapsed":153047,"internal_node_id":"0.0-2.0-0.60"},{"rt":1187,"stimulus":"images/Human/With_Backgrounds/difficulty5_image2.png","response":5,"category":"Human","background_difficulty":"5","image_path":"images/Human/With_Backgrounds/difficulty5_image2.png","trial_type":"image-button-response","trial_index":63,"time_elapsed":154235,"internal_node_id":"0.0-2.0-0.61"},{"rt":1046,"stimulus":"images/Tree/With_Backgrounds/difficulty3_image3.png","response":6,"category":"Tree","background_difficulty":"3","image_path":"images/Tree/With_Backgrounds/difficulty3_image3.png","trial_type":"image-button-response","trial_index":64,"time_elapsed":155283,"internal_node_id":"0.0-2.0-0.62"},{"rt":1254,"stimulus":"images/Boat/With_Backgrounds/difficulty7_image2.png","response":0,"category":"Boat","background_difficulty":"7","image_path":"images/Boat/With_Backgrounds/difficulty7_image2.png","trial_type":"image-button-response","trial_index":65,"time_elapsed":156538,"internal_node_id":"0.0-2.0-0.63"},{"rt":1281,"stimulus":"images/Car/With_Backgrounds/difficulty5_image8.png","response":2,"category":"Car","background_difficulty":"5","image_path":"images/Car/With_Backgrounds/difficulty5_image8.png","trial_type":"image-button-response","trial_index":66,"time_elapsed":157821,"internal_node_id":"0.0-2.0-0.64"},{"rt":1308,"stimulus":"images/Other/With_Backgrounds/difficulty2_image6.png","response":7,"category":"Other","background_difficulty":"2","image_path":"images/Other/With_Backgrounds/difficulty2_image6.png","trial_type":"image-button-response","trial_index":67,"time_elapsed":159130,"internal_node_id":"0.0-2.0-0.65"},{"rt":1309,"stimulus":"images/Dog/With_Backgrounds/difficulty5_image3.png","response":4,"category":"Dog","background_difficulty":"5","image_path":"images/Dog/With_Backgrounds/difficulty5_image3.png","trial_type":"image-button-response","trial_index":68,"time_elapsed":160440,"internal_node_id":"0.0-2.0-0.66"},{"rt":1252,"stimulus":"images/Boat/With_Backgrounds/difficulty1_image6.png","response":0,"category":"Boat","background_difficulty":"1","image_path":"images/Boat/With_Backgrounds/difficulty1_image6.png","trial_type":"image-button-response","trial_index":69,"time_elapsed":161694,"internal_node_id":"0.0-2.0-0.67"},{"rt":1667,"stimulus":"images/Cat/With_Backgrounds/difficulty8_image7.png","response":3,"category":"Cat","background_difficulty":"8","image_path":"images/Cat/With_Backgrounds/difficulty8_image7.png","trial_type":"image-button-response","trial_index":70,"time_elapsed":163362,"internal_node_id":"0.0-2.0-0.68"},{"rt":1287,"stimulus":"images/Dog/With_Backgrounds/difficulty2_image7.png","response":4,"category":"Dog","background_difficulty":"2","image_path":"images/Dog/With_Backgrounds/difficulty2_image7.png","trial_type":"image-button-response","trial_index":71,"time_elapsed":164650,"internal_node_id":"0.0-2.0-0.69"},{"rt":1191,"stimulus":"images/Car/With_Backgrounds/difficulty0_image3.png","response":2,"category":"Car","background_difficulty":"0","image_path":"images/Car/With_Backgrounds/difficulty0_image3.png","trial_type":"image-button-response","trial_index":72,"time_elapsed":165842,"internal_node_id":"0.0-2.0-0.70"},{"rt":1411,"stimulus":"images/Boat/With_Backgrounds/difficulty3_image1.png","response":0,"category":"Boat","background_difficulty":"3","image_path":"images/Boat/With_Backgrounds/difficulty3_image1.png","trial_type":"image-button-response","trial_index":73,"time_elapsed":167254,"internal_node_id":"0.0-2.0-0.71"},{"rt":5205,"stimulus":["<h2>Press the button below to end experiment.</h2><p>Thank you for participating!</p>"],"response":0,"trial_type":"html-button-response","trial_index":74,"time_elapsed":172460,"internal_node_id":"0.0-3.0"}]