[{"success":true,"timeout":false,"failed_images":[],"failed_audio":[],"failed_video":[],"trial_type":"preload","trial_index":0,"time_elapsed":3166,"internal_node_id":"0.0-0.0"},{"rt":18784,"stimulus":["<h2>Noisy background image classification</h2><p>In this experiment you will briefly see images on top of colored squares of various sizes.</p><p>Your task is to report what each image is, selecting \"None of the Above\" if none of the given options are correct.</p> <p>The possible options are <strong>Boat</strong>, <strong>Broccoli</strong>, <strong>Car</strong>, <strong>Cat</strong>, <strong>Dog</strong>, <strong>Human</strong>, <strong>Tree</strong>, and <strong>None of the Above</strong>"],"response":0,"trial_type":"html-button-response","trial_index":1,"time_elapsed":21952,"internal_node_id":"0.0-1.0"},{"rt":1540,"stimulus":"images/Cat/With_Backgrounds/difficulty0_image1.png","response":3,"category":"Cat","background_difficulty":"0","image_path":"images/Cat/With_Backgrounds/difficulty0_image1.png","trial_type":"image-button-response","trial_index":2,"time_elapsed":23506,"internal_node_id":"0.0-2.0-0.0"},{"rt":2315,"stimulus":"images/Other/With_Backgrounds/difficulty3_image5.png","response":7,"category":"Other","background_difficulty":"3","image_path":"images/Other/With_Backgrounds/difficulty3_image5.png","trial_type":"image-button-response","trial_index":3,"time_elapsed":25824,"internal_node_id":"0.0-2.0-0.1"},{"rt":1964,"stimulus":"images/Other/With_Backgrounds/difficulty1_image0.png","response":7,"category":"Other","background_difficulty":"1","image_path":"images/Other/With_Backgrounds/difficulty1_image0.png","trial_type":"image-button-response","trial_index":4,"time_elapsed":27790,"internal_node_id":"0.0-2.0-0.2"},{"rt":880,"stimulus":"images/Dog/With_Backgrounds/difficulty3_image7.png","response":4,"category":"Dog","background_difficulty":"3","image_path":"images/Dog/With_Backgrounds/difficulty3_image7.png","trial_type":"image-button-response","trial_index":5,"time_elapsed":28672,"internal_node_id":"0.0-2.0-0.3"},{"rt":1677,"stimulus":"images/Boat/With_Backgrounds/difficulty3_image4.png","response":0,"category":"Boat","background_difficulty":"3","image_path":"images/Boat/With_Backgrounds/difficulty3_image4.png","trial_type":"image-button-response","trial_index":6,"time_elapsed":30351,"internal_node_id":"0.0-2.0-0.4"},{"rt":902,"stimulus":"images/Broccoli/With_Backgrounds/difficulty5_image3.png","response":1,"category":"Broccoli","background_difficulty":"5","image_path":"images/Broccoli/With_Backgrounds/difficulty5_image3.png","trial_type":"image-button-response","trial_index":7,"time_elapsed":31256,"internal_node_id":"0.0-2.0-0.5"},{"rt":1101,"stimulus":"images/Cat/With_Backgrounds/difficulty5_image0.png","response":3,"category":"Cat","background_difficulty":"5","image_path":"images/Cat/With_Backgrounds/difficulty5_image0.png","trial_type":"image-button-response","trial_index":8,"time_elapsed":32359,"internal_node_id":"0.0-2.0-0.6"},{"rt":1126,"stimulus":"images/Broccoli/With_Backgrounds/difficulty3_image9.png","response":1,"category":"Broccoli","background_difficulty":"3","image_path":"images/Broccoli/With_Backgrounds/difficulty3_image9.png","trial_type":"image-button-response","trial_index":9,"time_elapsed":33487,"internal_node_id":"0.0-2.0-0.7"},{"rt":1654,"stimulus":"images/Tree/With_Backgrounds/difficulty1_image1.png","response":6,"category":"Tree","background_difficulty":"1","image_path":"images/Tree/With_Backgrounds/difficulty1_image1.png","trial_type":"image-button-response","trial_index":10,"time_elapsed":35143,"internal_node_id":"0.0-2.0-0.8"},{"rt":1798,"stimulus":"images/Other/With_Backgrounds/difficulty2_image4.png","response":7,"category":"Other","background_difficulty":"2","image_path":"images/Other/With_Backgrounds/difficulty2_image4.png","trial_type":"image-button-response","trial_index":11,"time_elapsed":36943,"internal_node_id":"0.0-2.0-0.9"},{"rt":1189,"stimulus":"images/Dog/With_Backgrounds/difficulty1_image2.png","response":4,"category":"Dog","background_difficulty":"1","image_path":"images/Dog/With_Backgrounds/difficulty1_image2.png","trial_type":"image-button-response","trial_index":12,"time_elapsed":38135,"internal_node_id":"0.0-2.0-0.10"},{"rt":1429,"stimulus":"images/Human/With_Backgrounds/difficulty4_image0.png","response":5,"category":"Human","background_difficulty":"4","image_path":"images/Human/With_Backgrounds/difficulty4_image0.png","trial_type":"image-button-response","trial_index":13,"time_elapsed":39567,"internal_node_id":"0.0-2.0-0.11"},{"rt":1326,"stimulus":"images/Boat/With_Backgrounds/difficulty6_image8.png","response":0,"category":"Boat","background_difficulty":"6","image_path":"images/Boat/With_Backgrounds/difficulty6_image8.png","trial_type":"image-button-response","trial_index":14,"time_elapsed":40895,"internal_node_id":"0.0-2.0-0.12"},{"rt":1317,"stimulus":"images/Tree/With_Backgrounds/difficulty6_image7.png","response":6,"category":"Tree","background_difficulty":"6","image_path":"images/Tree/With_Backgrounds/difficulty6_image7.png","trial_type":"image-button-response","trial_index":15,"time_elapsed":42215,"internal_node_id":"0.0-2.0-0.13"},{"rt":942,"stimulus":"images/Tree/With_Backgrounds/difficulty2_image4.png","response":6,"category":"Tree","background_difficulty":"2","image_path":"images/Tree/With_Backgrounds/difficulty2_image4.png","trial_type":"image-button-response","trial_index":16,"time_elapsed":43159,"internal_node_id":"0.0-2.0-0.14"},{"rt":1181,"stimulus":"images/Car/With_Backgrounds/difficulty3_image0.png","response":2,"category":"Car","background_difficulty":"3","image_path":"images/Car/With_Backgrounds/difficulty3_image0.png","trial_type":"image-button-response","trial_index":17,"time_elapsed":44343,"internal_node_id":"0.0-2.0-0.15"},{"rt":1157,"stimulus":"images/Other/With_Backgrounds/difficulty5_image6.png","response":7,"category":"Other","background_difficulty":"5","image_path":"images/Other/With_Backgrounds/difficulty5_image6.png","trial_type":"image-button-response","trial_index":18,"time_elapsed":45503,"internal_node_id":"0.0-2.0-0.16"},{"rt":1181,"stimulus":"images/Human/With_Backgrounds/difficulty6_image4.png","response":5,"category":"Human","background_difficulty":"6","image_path":"images/Human/With_Backgrounds/difficulty6_image4.png","trial_type":"image-button-response","trial_index":19,"time_elapsed":46686,"internal_node_id":"0.0-2.0-0.17"},{"rt":1295,"stimulus":"images/Broccoli/With_Backgrounds/difficulty0_image0.png","response":1,"category":"Broccoli","background_difficulty":"0","image_path":"images/Broccoli/With_Backgrounds/difficulty0_image0.png","trial_type":"image-button-response","trial_index":20,"time_elapsed":47983,"internal_node_id":"0.0-2.0-0.18"},{"rt":1462,"stimulus":"images/Car/With_Backgrounds/difficulty7_image6.png","response":2,"category":"Car","background_difficulty":"7","image_path":"images/Car/With_Backgrounds/difficulty7_image6.png","trial_type":"image-button-response","trial_index":21,"time_elapsed":49447,"internal_node_id":"0.0-2.0-0.19"},{"rt":1277,"stimulus":"images/Dog/With_Backgrounds/difficulty8_image0.png","response":4,"category":"Dog","background_difficulty":"8","image_path":"images/Dog/With_Backgrounds/difficulty8_image0.png","trial_type":"image-button-response","trial_index":22,"time_elapsed":50727,"internal_node_id":"0.0-2.0-0.20"},{"rt":733,"stimulus":"images/Dog/With_Backgrounds/difficulty6_image3.png","response":4,"category":"Dog","background_difficulty":"6","image_path":"images/Dog/With_Backgrounds/difficulty6_image3.png","trial_type":"image-button-response","trial_index":23,"time_elapsed":51463,"internal_node_id":"0.0-2.0-0.21"},{"rt":1141,"stimulus":"images/Cat/With_Backgrounds/difficulty2_image5.png","response":3,"category":"Cat","background_difficulty":"2","image_path":"images/Cat/With_Backgrounds/difficulty2_image5.png","trial_type":"image-button-response","trial_index":24,"time_elapsed":52607,"internal_node_id":"0.0-2.0-0.22"},{"rt":1101,"stimulus":"images/Broccoli/With_Backgrounds/difficulty6_image2.png","response":1,"category":"Broccoli","background_difficulty":"6","image_path":"images/Broccoli/With_Backgrounds/difficulty6_image2.png","trial_type":"image-button-response","trial_index":25,"time_elapsed":53711,"internal_node_id":"0.0-2.0-0.23"},{"rt":2021,"stimulus":"images/Boat/With_Backgrounds/difficulty7_image3.png","response":0,"category":"Boat","background_difficulty":"7","image_path":"images/Boat/With_Backgrounds/difficulty7_image3.png","trial_type":"image-button-response","trial_index":26,"time_elapsed":55734,"internal_node_id":"0.0-2.0-0.24"},{"rt":1454,"stimulus":"images/Car/With_Backgrounds/difficulty8_image7.png","response":2,"category":"Car","background_difficulty":"8","image_path":"images/Car/With_Backgrounds/difficulty8_image7.png","trial_type":"image-button-response","trial_index":27,"time_elapsed":57191,"internal_node_id":"0.0-2.0-0.25"},{"rt":1213,"stimulus":"images/Dog/With_Backgrounds/difficulty7_image6.png","response":4,"category":"Dog","background_difficulty":"7","image_path":"images/Dog/With_Backgrounds/difficulty7_image6.png","trial_type":"image-button-response","trial_index":28,"time_elapsed":58406,"internal_node_id":"0.0-2.0-0.26"},{"rt":973,"stimulus":"images/Broccoli/With_Backgrounds/difficulty1_image8.png","response":1,"category":"Broccoli","background_difficulty":"1","image_path":"images/Broccoli/With_Backgrounds/difficulty1_image8.png","trial_type":"image-button-response","trial_index":29,"time_elapsed":59381,"internal_node_id":"0.0-2.0-0.27"},{"rt":1687,"stimulus":"images/Other/With_Backgrounds/difficulty8_image9.png","response":7,"category":"Other","background_difficulty":"8","image_path":"images/Other/With_Backgrounds/difficulty8_image9.png","trial_type":"image-button-response","trial_index":30,"time_elapsed":61071,"internal_node_id":"0.0-2.0-0.28"},{"rt":1661,"stimulus":"images/Car/With_Backgrounds/difficulty2_image8.png","response":2,"category":"Car","background_difficulty":"2","image_path":"images/Car/With_Backgrounds/difficulty2_image8.png","trial_type":"image-button-response","trial_index":31,"time_elapsed":62734,"internal_node_id":"0.0-2.0-0.29"},{"rt":1029,"stimulus":"images/Tree/With_Backgrounds/difficulty8_image6.png","response":6,"category":"Tree","background_difficulty":"8","image_path":"images/Tree/With_Backgrounds/difficulty8_image6.png","trial_type":"image-button-response","trial_index":32,"time_elapsed":63765,"internal_node_id":"0.0-2.0-0.30"},{"rt":1295,"stimulus":"images/Human/With_Backgrounds/difficulty3_image8.png","response":5,"category":"Human","background_difficulty":"3","image_path":"images/Human/With_Backgrounds/difficulty3_image8.png","trial_type":"image-button-response","trial_index":33,"time_elapsed":65063,"internal_node_id":"0.0-2.0-0.31"},{"rt":1461,"stimulus":"images/Car/With_Backgrounds/difficulty6_image9.png","response":2,"category":"Car","background_difficulty":"6","image_path":"images/Car/With_Backgrounds/difficulty6_image9.png","trial_type":"image-button-response","trial_index":34,"time_elapsed":66526,"internal_node_id":"0.0-2.0-0.32"},{"rt":974,"stimulus":"images/Broccoli/With_Backgrounds/difficulty7_image1.png","response":1,"category":"Broccoli","background_difficulty":"7","image_path":"images/Broccoli/With_Backgrounds/difficulty7_image1.png","trial_type":"image-button-response","trial_index":35,"time_elapsed":67502,"internal_node_id":"0.0-2.0-0.33"},{"rt":1173,"stimulus":"images/Car/With_Backgrounds/difficulty4_image1.png","response":2,"category":"Car","background_difficulty":"4","image_path":"images/Car/With_Backgrounds/difficulty4_image1.png","trial_type":"image-button-response","trial_index":36,"time_elapsed":68678,"internal_node_id":"0.0-2.0-0.34"},{"rt":1380,"stimulus":"images/Broccoli/With_Backgrounds/difficulty4_image7.png","response":2,"category":"Broccoli","background_difficulty":"4","image_path":"images/Broccoli/With_Backgrounds/difficulty4_image7.png","trial_type":"image-button-response","trial_index":37,"time_elapsed":70061,"internal_node_id":"0.0-2.0-0.35"},{"rt":1327,"stimulus":"images/Cat/With_Backgrounds/difficulty6_image3.png","response":3,"category":"Cat","background_difficulty":"6","image_path":"images/Cat/With_Backgrounds/difficulty6_image3.png","trial_type":"image-button-response","trial_index":38,"time_elapsed":71389,"internal_node_id":"0.0-2.0-0.36"},{"rt":1360,"stimulus":"images/Boat/With_Backgrounds/difficulty1_image9.png","response":0,"category":"Boat","background_difficulty":"1","image_path":"images/Boat/With_Backgrounds/difficulty1_image9.png","trial_type":"image-button-response","trial_index":39,"time_elapsed":72750,"internal_node_id":"0.0-2.0-0.37"},{"rt":1182,"stimulus":"images/Cat/With_Backgrounds/difficulty8_image6.png","response":3,"category":"Cat","background_difficulty":"8","image_path":"images/Cat/With_Backgrounds/difficulty8_image6.png","trial_type":"image-button-response","trial_index":40,"time_elapsed":73934,"internal_node_id":"0.0-2.0-0.38"},{"rt":1445,"stimulus":"images/Dog/With_Backgrounds/difficulty5_image4.png","response":4,"category":"Dog","background_difficulty":"5","image_path":"images/Dog/With_Backgrounds/difficulty5_image4.png","trial_type":"image-button-response","trial_index":41,"time_elapsed":75382,"internal_node_id":"0.0-2.0-0.39"},{"rt":1077,"stimulus":"images/Broccoli/With_Backgrounds/difficulty2_image6.png","response":1,"category":"Broccoli","background_difficulty":"2","image_path":"images/Broccoli/With_Backgrounds/difficulty2_image6.png","trial_type":"image-button-response","trial_index":42,"time_elapsed":76461,"internal_node_id":"0.0-2.0-0.40"},{"rt":862,"stimulus":"images/Broccoli/With_Backgrounds/difficulty8_image4.png","response":1,"category":"Broccoli","background_difficulty":"8","image_path":"images/Broccoli/With_Backgrounds/difficulty8_image4.png","trial_type":"image-button-response","trial_index":43,"time_elapsed":77326,"internal_node_id":"0.0-2.0-0.41"},{"rt":1133,"stimulus":"images/Cat/With_Backgrounds/difficulty1_image2.png","response":3,"category":"Cat","background_difficulty":"1","image_path":"images/Cat/With_Backgrounds/difficulty1_image2.png","trial_type":"image-button-response","trial_index":44,"time_elapsed":78462,"internal_node_id":"0.0-2.0-0.42"},{"rt":1769,"stimulus":"images/Tree/With_Backgrounds/difficulty5_image5.png","response":6,"category":"Tree","background_difficulty":"5","image_path":"images/Tree/With_Backgrounds/difficulty5_image5.png","trial_type":"image-button-response","trial_index":45,"time_elapsed":80234,"internal_node_id":"0.0-2.0-0.43"},{"rt":1666,"stimulus":"images/Boat/With_Backgrounds/difficulty0_image1.png","response":0,"category":"Boat","background_difficulty":"0","image_path":"images/Boat/With_Backgrounds/difficulty0_image1.png","trial_type":"image-button-response","trial_index":46,"time_elapsed":81902,"internal_node_id":"0.0-2.0-0.44"},{"rt":1181,"stimulus":"images/Other/With_Backgrounds/difficulty7_image7.png","response":7,"category":"Other","background_difficulty":"7","image_path":"images/Other/With_Backgrounds/difficulty7_image7.png","trial_type":"image-button-response","trial_index":47,"time_elapsed":83086,"internal_node_id":"0.0-2.0-0.45"},{"rt":1109,"stimulus":"images/Human/With_Backgrounds/difficulty1_image7.png","response":5,"category":"Human","background_difficulty":"1","image_path":"images/Human/With_Backgrounds/difficulty1_image7.png","trial_type":"image-button-response","trial_index":48,"time_elapsed":84197,"internal_node_id":"0.0-2.0-0.46"},{"rt":854,"stimulus":"images/Human/With_Backgrounds/difficulty8_image1.png","response":5,"category":"Human","background_difficulty":"8","image_path":"images/Human/With_Backgrounds/difficulty8_image1.png","trial_type":"image-button-response","trial_index":49,"time_elapsed":85054,"internal_node_id":"0.0-2.0-0.47"},{"rt":1677,"stimulus":"images/Boat/With_Backgrounds/difficulty5_image5.png","response":0,"category":"Boat","background_difficulty":"5","image_path":"images/Boat/With_Backgrounds/difficulty5_image5.png","trial_type":"image-button-response","trial_index":50,"time_elapsed":86734,"internal_node_id":"0.0-2.0-0.48"},{"rt":1077,"stimulus":"images/Dog/With_Backgrounds/difficulty4_image9.png","response":4,"category":"Dog","background_difficulty":"4","image_path":"images/Dog/With_Backgrounds/difficulty4_image9.png","trial_type":"image-button-response","trial_index":51,"time_elapsed":87814,"internal_node_id":"0.0-2.0-0.49"},{"rt":1268,"stimulus":"images/Tree/With_Backgrounds/difficulty4_image3.png","response":6,"category":"Tree","background_difficulty":"4","image_path":"images/Tree/With_Backgrounds/difficulty4_image3.png","trial_type":"image-button-response","trial_index":52,"time_elapsed":89084,"internal_node_id":"0.0-2.0-0.50"},{"rt":1607,"stimulus":"images/Car/With_Backgrounds/difficulty0_image4.png","response":2,"category":"Car","background_difficulty":"0","image_path":"images/Car/With_Backgrounds/difficulty0_image4.png","trial_type":"image-button-response","trial_index":53,"time_elapsed":90693,"internal_node_id":"0.0-2.0-0.51"},{"rt":965,"stimulus":"images/Dog/With_Backgrounds/difficulty0_image5.png","response":4,"category":"Dog","background_difficulty":"0","image_path":"images/Dog/With_Backgrounds/difficulty0_image5.png","trial_type":"image-button-response","trial_index":54,"time_elapsed":91660,"internal_node_id":"0.0-2.0-0.52"},{"rt":1647,"stimulus":"images/Tree/With_Backgrounds/difficulty0_image8.png","response":6,"category":"Tree","background_difficulty":"0","image_path":"images/Tree/With_Backgrounds/difficulty0_image8.png","trial_type":"image-button-response","trial_index":55,"time_elapsed":93308,"internal_node_id":"0.0-2.0-0.53"},{"rt":1055,"stimulus":"images/Car/With_Backgrounds/difficulty1_image5.png","response":2,"category":"Car","background_difficulty":"1","image_path":"images/Car/With_Backgrounds/difficulty1_image5.png","trial_type":"image-button-response","trial_index":56,"time_elapsed":94365,"internal_node_id":"0.0-2.0-0.54"},{"rt":1278,"stimulus":"images/Boat/With_Backgrounds/difficulty2_image0.png","response":0,"category":"Boat","background_difficulty":"2","image_path":"images/Boat/With_Backgrounds/difficulty2_image0.png","trial_type":"image-button-response","trial_index":57,"time_elapsed":95645,"internal_node_id":"0.0-2.0-0.55"},{"rt":1373,"stimulus":"images/Other/With_Backgrounds/difficulty6_image2.png","response":7,"category":"Other","background_difficulty":"6","image_path":"images/Other/With_Backgrounds/difficulty6_image2.png","trial_type":"image-button-response","trial_index":58,"time_elapsed":97021,"internal_node_id":"0.0-2.0-0.56"},{"rt":806,"stimulus":"images/Tree/With_Backgrounds/difficulty3_image0.png","response":6,"category":"Tree","background_difficulty":"3","image_path":"images/Tree/With_Backgrounds/difficulty3_image0.png","trial_type":"image-button-response","trial_index":59,"time_elapsed":97830,"internal_node_id":"0.0-2.0-0.57"},{"rt":1325,"stimulus":"images/Dog/With_Backgrounds/difficulty2_image8.png","response":4,"category":"Dog","background_difficulty":"2","image_path":"images/Dog/With_Backgrounds/difficulty2_image8.png","trial_type":"image-button-response","trial_index":60,"time_elapsed":99157,"internal_node_id":"0.0-2.0-0.58"},{"rt":1820,"stimulus":"images/Boat/With_Backgrounds/difficulty8_image7.png","response":0,"category":"Boat","background_difficulty":"8","image_path":"images/Boat/With_Backgrounds/difficulty8_image7.png","trial_type":"image-button-response","trial_index":61,"time_elapsed":100981,"internal_node_id":"0.0-2.0-0.59"},{"rt":1086,"stimulus":"images/Other/With_Backgrounds/difficulty0_image8.png","response":7,"category":"Other","background_difficulty":"0","image_path":"images/Other/With_Backgrounds/difficulty0_image8.png","trial_type":"image-button-response","trial_index":62,"time_elapsed":102069,"internal_node_id":"0.0-2.0-0.60"},{"rt":926,"stimulus":"images/Tree/With_Backgrounds/difficulty7_image2.png","response":6,"category":"Tree","background_difficulty":"7","image_path":"images/Tree/With_Backgrounds/difficulty7_image2.png","trial_type":"image-button-response","trial_index":63,"time_elapsed":102997,"internal_node_id":"0.0-2.0-0.61"},{"rt":1526,"stimulus":"images/Car/With_Backgrounds/difficulty5_image3.png","response":2,"category":"Car","background_difficulty":"5","image_path":"images/Car/With_Backgrounds/difficulty5_image3.png","trial_type":"image-button-response","trial_index":64,"time_elapsed":104525,"internal_node_id":"0.0-2.0-0.62"},{"rt":1213,"stimulus":"images/Human/With_Backgrounds/difficulty0_image2.png","response":5,"category":"Human","background_difficulty":"0","image_path":"images/Human/With_Backgrounds/difficulty0_image2.png","trial_type":"image-button-response","trial_index":65,"time_elapsed":105741,"internal_node_id":"0.0-2.0-0.63"},{"rt":1989,"stimulus":"images/Other/With_Backgrounds/difficulty4_image1.png","response":7,"category":"Other","background_difficulty":"4","image_path":"images/Other/With_Backgrounds/difficulty4_image1.png","trial_type":"image-button-response","trial_index":66,"time_elapsed":107732,"internal_node_id":"0.0-2.0-0.64"},{"rt":926,"stimulus":"images/Human/With_Backgrounds/difficulty2_image3.png","response":5,"category":"Human","background_difficulty":"2","image_path":"images/Human/With_Backgrounds/difficulty2_image3.png","trial_type":"image-button-response","trial_index":67,"time_elapsed":108660,"internal_node_id":"0.0-2.0-0.65"},{"rt":846,"stimulus":"images/Human/With_Backgrounds/difficulty5_image6.png","response":5,"category":"Human","background_difficulty":"5","image_path":"images/Human/With_Backgrounds/difficulty5_image6.png","trial_type":"image-button-response","trial_index":68,"time_elapsed":109509,"internal_node_id":"0.0-2.0-0.66"},{"rt":1270,"stimulus":"images/Cat/With_Backgrounds/difficulty3_image9.png","response":3,"category":"Cat","background_difficulty":"3","image_path":"images/Cat/With_Backgrounds/difficulty3_image9.png","trial_type":"image-button-response","trial_index":69,"time_elapsed":110781,"internal_node_id":"0.0-2.0-0.67"},{"rt":1132,"stimulus":"images/Human/With_Backgrounds/difficulty7_image5.png","response":5,"category":"Human","background_difficulty":"7","image_path":"images/Human/With_Backgrounds/difficulty7_image5.png","trial_type":"image-button-response","trial_index":70,"time_elapsed":111915,"internal_node_id":"0.0-2.0-0.68"},{"rt":1072,"stimulus":"images/Cat/With_Backgrounds/difficulty4_image7.png","response":3,"category":"Cat","background_difficulty":"4","image_path":"images/Cat/With_Backgrounds/difficulty4_image7.png","trial_type":"image-button-response","trial_index":71,"time_elapsed":112989,"internal_node_id":"0.0-2.0-0.69"},{"rt":1221,"stimulus":"images/Boat/With_Backgrounds/difficulty4_image6.png","response":0,"category":"Boat","background_difficulty":"4","image_path":"images/Boat/With_Backgrounds/difficulty4_image6.png","trial_type":"image-button-response","trial_index":72,"time_elapsed":114212,"internal_node_id":"0.0-2.0-0.70"},{"rt":1126,"stimulus":"images/Cat/With_Backgrounds/difficulty7_image4.png","response":3,"category":"Cat","background_difficulty":"7","image_path":"images/Cat/With_Backgrounds/difficulty7_image4.png","trial_type":"image-button-response","trial_index":73,"time_elapsed":115340,"internal_node_id":"0.0-2.0-0.71"},{"rt":1222,"stimulus":["<h2>Press the button below to end experiment.</h2><p>Thank you for participating!</p>"],"response":0,"trial_type":"html-button-response","trial_index":74,"time_elapsed":116564,"internal_node_id":"0.0-3.0"}]