[{"success":true,"timeout":false,"failed_images":[],"failed_audio":[],"failed_video":[],"trial_type":"preload","trial_index":0,"time_elapsed":3256,"internal_node_id":"0.0-0.0"},{"rt":22108,"stimulus":["<h2>Noisy background image classification</h2><p>In this experiment you will briefly see images on top of colored squares of various sizes.</p><p>Your task is to report what each image is, selecting \"None of the Above\" if none of the given options are correct.</p> <p>The possible options are <strong>Boat</strong>, <strong>Broccoli</strong>, <strong>Car</strong>, <strong>Cat</strong>, <strong>Dog</strong>, <strong>Human</strong>, <strong>Tree</strong>, and <strong>None of the Above</strong>"],"response":0,"trial_type":"html-button-response","trial_index":1,"time_elapsed":25364,"internal_node_id":"0.0-1.0"},{"rt":2860,"stimulus":"images/Tree/With_Backgrounds/difficulty8_image0.png","response":6,"category":"Tree","background_difficulty":"8","image_path":"images/Tree/With_Backgrounds/difficulty8_image0.png","trial_type":"image-button-response","trial_index":2,"time_elapsed":28228,"internal_node_id":"0.0-2.0-0.0"},{"rt":1361,"stimulus":"images/Human/With_Backgrounds/difficulty7_image0.png","response":5,"category":"Human","background_difficulty":"7","image_path":"images/Human/With_Backgrounds/difficulty7_image0.png","trial_type":"image-button-response","trial_index":3,"time_elapsed":29592,"internal_node_id":"0.0-2.0-0.1"},{"rt":1229,"stimulus":"images/Dog/With_Backgrounds/difficulty1_image5.png","response":4,"category":"Dog","background_difficulty":"1","image_path":"images/Dog/With_Backgrounds/difficulty1_image5.png","trial_type":"image-button-response","trial_index":4,"time_elapsed":30823,"internal_node_id":"0.0-2.0-0.2"},{"rt":1084,"stimulus":"images/Cat/With_Backgrounds/difficulty3_image1.png","response":3,"category":"Cat","background_difficulty":"3","image_path":"images/Cat/With_Backgrounds/difficulty3_image1.png","trial_type":"image-button-response","trial_index":5,"time_elapsed":31909,"internal_node_id":"0.0-2.0-0.3"},{"rt":2611,"stimulus":"images/Human/With_Backgrounds/difficulty2_image2.png","response":5,"category":"Human","background_difficulty":"2","image_path":"images/Human/With_Backgrounds/difficulty2_image2.png","trial_type":"image-button-response","trial_index":6,"time_elapsed":34522,"internal_node_id":"0.0-2.0-0.4"},{"rt":1302,"stimulus":"images/Car/With_Backgrounds/difficulty3_image7.png","response":2,"category":"Car","background_difficulty":"3","image_path":"images/Car/With_Backgrounds/difficulty3_image7.png","trial_type":"image-button-response","trial_index":7,"time_elapsed":35825,"internal_node_id":"0.0-2.0-0.5"},{"rt":1202,"stimulus":"images/Dog/With_Backgrounds/difficulty0_image2.png","response":4,"category":"Dog","background_difficulty":"0","image_path":"images/Dog/With_Backgrounds/difficulty0_image2.png","trial_type":"image-button-response","trial_index":8,"time_elapsed":37028,"internal_node_id":"0.0-2.0-0.6"},{"rt":2543,"stimulus":"images/Tree/With_Backgrounds/difficulty6_image8.png","response":6,"category":"Tree","background_difficulty":"6","image_path":"images/Tree/With_Backgrounds/difficulty6_image8.png","trial_type":"image-button-response","trial_index":9,"time_elapsed":39572,"internal_node_id":"0.0-2.0-0.7"},{"rt":1490,"stimulus":"images/Broccoli/With_Backgrounds/difficulty1_image9.png","response":1,"category":"Broccoli","background_difficulty":"1","image_path":"images/Broccoli/With_Backgrounds/difficulty1_image9.png","trial_type":"image-button-response","trial_index":10,"time_elapsed":41064,"internal_node_id":"0.0-2.0-0.8"},{"rt":2526,"stimulus":"images/Boat/With_Backgrounds/difficulty7_image9.png","response":0,"category":"Boat","background_difficulty":"7","image_path":"images/Boat/With_Backgrounds/difficulty7_image9.png","trial_type":"image-button-response","trial_index":11,"time_elapsed":43591,"internal_node_id":"0.0-2.0-0.9"},{"rt":1230,"stimulus":"images/Human/With_Backgrounds/difficulty8_image1.png","response":5,"category":"Human","background_difficulty":"8","image_path":"images/Human/With_Backgrounds/difficulty8_image1.png","trial_type":"image-button-response","trial_index":12,"time_elapsed":44822,"internal_node_id":"0.0-2.0-0.10"},{"rt":1352,"stimulus":"images/Broccoli/With_Backgrounds/difficulty0_image7.png","response":1,"category":"Broccoli","background_difficulty":"0","image_path":"images/Broccoli/With_Backgrounds/difficulty0_image7.png","trial_type":"image-button-response","trial_index":13,"time_elapsed":46175,"internal_node_id":"0.0-2.0-0.11"},{"rt":1867,"stimulus":"images/Other/With_Backgrounds/difficulty4_image4.png","response":7,"category":"Other","background_difficulty":"4","image_path":"images/Other/With_Backgrounds/difficulty4_image4.png","trial_type":"image-button-response","trial_index":14,"time_elapsed":48043,"internal_node_id":"0.0-2.0-0.12"},{"rt":1348,"stimulus":"images/Boat/With_Backgrounds/difficulty3_image8.png","response":0,"category":"Boat","background_difficulty":"3","image_path":"images/Boat/With_Backgrounds/difficulty3_image8.png","trial_type":"image-button-response","trial_index":15,"time_elapsed":49391,"internal_node_id":"0.0-2.0-0.13"},{"rt":1697,"stimulus":"images/Tree/With_Backgrounds/difficulty1_image6.png","response":6,"category":"Tree","background_difficulty":"1","image_path":"images/Tree/With_Backgrounds/difficulty1_image6.png","trial_type":"image-button-response","trial_index":16,"time_elapsed":51090,"internal_node_id":"0.0-2.0-0.14"},{"rt":1164,"stimulus":"images/Human/With_Backgrounds/difficulty4_image8.png","response":5,"category":"Human","background_difficulty":"4","image_path":"images/Human/With_Backgrounds/difficulty4_image8.png","trial_type":"image-button-response","trial_index":17,"time_elapsed":52255,"internal_node_id":"0.0-2.0-0.15"},{"rt":1315,"stimulus":"images/Car/With_Backgrounds/difficulty7_image5.png","response":2,"category":"Car","background_difficulty":"7","image_path":"images/Car/With_Backgrounds/difficulty7_image5.png","trial_type":"image-button-response","trial_index":18,"time_elapsed":53572,"internal_node_id":"0.0-2.0-0.16"},{"rt":1191,"stimulus":"images/Boat/With_Backgrounds/difficulty6_image7.png","response":0,"category":"Boat","background_difficulty":"6","image_path":"images/Boat/With_Backgrounds/difficulty6_image7.png","trial_type":"image-button-response","trial_index":19,"time_elapsed":54764,"internal_node_id":"0.0-2.0-0.17"},{"rt":1422,"stimulus":"images/Cat/With_Backgrounds/difficulty6_image5.png","response":3,"category":"Cat","background_difficulty":"6","image_path":"images/Cat/With_Backgrounds/difficulty6_image5.png","trial_type":"image-button-response","trial_index":20,"time_elapsed":56188,"internal_node_id":"0.0-2.0-0.18"},{"rt":2033,"stimulus":"images/Other/With_Backgrounds/difficulty1_image6.png","response":7,"category":"Other","background_difficulty":"1","image_path":"images/Other/With_Backgrounds/difficulty1_image6.png","trial_type":"image-button-response","trial_index":21,"time_elapsed":58222,"internal_node_id":"0.0-2.0-0.19"},{"rt":1043,"stimulus":"images/Human/With_Backgrounds/difficulty1_image4.png","response":5,"category":"Human","background_difficulty":"1","image_path":"images/Human/With_Backgrounds/difficulty1_image4.png","trial_type":"image-button-response","trial_index":22,"time_elapsed":59267,"internal_node_id":"0.0-2.0-0.20"},{"rt":1322,"stimulus":"images/Tree/With_Backgrounds/difficulty2_image4.png","response":6,"category":"Tree","background_difficulty":"2","image_path":"images/Tree/With_Backgrounds/difficulty2_image4.png","trial_type":"image-button-response","trial_index":23,"time_elapsed":60590,"internal_node_id":"0.0-2.0-0.21"},{"rt":1302,"stimulus":"images/Other/With_Backgrounds/difficulty7_image0.png","response":7,"category":"Other","background_difficulty":"7","image_path":"images/Other/With_Backgrounds/difficulty7_image0.png","trial_type":"image-button-response","trial_index":24,"time_elapsed":61892,"internal_node_id":"0.0-2.0-0.22"},{"rt":1252,"stimulus":"images/Car/With_Backgrounds/difficulty6_image9.png","response":2,"category":"Car","background_difficulty":"6","image_path":"images/Car/With_Backgrounds/difficulty6_image9.png","trial_type":"image-button-response","trial_index":25,"time_elapsed":63146,"internal_node_id":"0.0-2.0-0.23"},{"rt":1028,"stimulus":"images/Broccoli/With_Backgrounds/difficulty2_image6.png","response":1,"category":"Broccoli","background_difficulty":"2","image_path":"images/Broccoli/With_Backgrounds/difficulty2_image6.png","trial_type":"image-button-response","trial_index":26,"time_elapsed":64177,"internal_node_id":"0.0-2.0-0.24"},{"rt":1613,"stimulus":"images/Car/With_Backgrounds/difficulty5_image8.png","response":2,"category":"Car","background_difficulty":"5","image_path":"images/Car/With_Backgrounds/difficulty5_image8.png","trial_type":"image-button-response","trial_index":27,"time_elapsed":65792,"internal_node_id":"0.0-2.0-0.25"},{"rt":1032,"stimulus":"images/Human/With_Backgrounds/difficulty6_image3.png","response":5,"category":"Human","background_difficulty":"6","image_path":"images/Human/With_Backgrounds/difficulty6_image3.png","trial_type":"image-button-response","trial_index":28,"time_elapsed":66826,"internal_node_id":"0.0-2.0-0.26"},{"rt":1097,"stimulus":"images/Boat/With_Backgrounds/difficulty4_image0.png","response":0,"category":"Boat","background_difficulty":"4","image_path":"images/Boat/With_Backgrounds/difficulty4_image0.png","trial_type":"image-button-response","trial_index":29,"time_elapsed":67924,"internal_node_id":"0.0-2.0-0.27"},{"rt":2299,"stimulus":"images/Boat/With_Backgrounds/difficulty8_image1.png","response":0,"category":"Boat","background_difficulty":"8","image_path":"images/Boat/With_Backgrounds/difficulty8_image1.png","trial_type":"image-button-response","trial_index":30,"time_elapsed":70224,"internal_node_id":"0.0-2.0-0.28"},{"rt":967,"stimulus":"images/Broccoli/With_Backgrounds/difficulty4_image3.png","response":1,"category":"Broccoli","background_difficulty":"4","image_path":"images/Broccoli/With_Backgrounds/difficulty4_image3.png","trial_type":"image-button-response","trial_index":31,"time_elapsed":71193,"internal_node_id":"0.0-2.0-0.29"},{"rt":1282,"stimulus":"images/Dog/With_Backgrounds/difficulty5_image0.png","response":4,"category":"Dog","background_difficulty":"5","image_path":"images/Dog/With_Backgrounds/difficulty5_image0.png","trial_type":"image-button-response","trial_index":32,"time_elapsed":72476,"internal_node_id":"0.0-2.0-0.30"},{"rt":1243,"stimulus":"images/Cat/With_Backgrounds/difficulty1_image3.png","response":3,"category":"Cat","background_difficulty":"1","image_path":"images/Cat/With_Backgrounds/difficulty1_image3.png","trial_type":"image-button-response","trial_index":33,"time_elapsed":73722,"internal_node_id":"0.0-2.0-0.31"},{"rt":1535,"stimulus":"images/Tree/With_Backgrounds/difficulty4_image3.png","response":6,"category":"Tree","background_difficulty":"4","image_path":"images/Tree/With_Backgrounds/difficulty4_image3.png","trial_type":"image-button-response","trial_index":34,"time_elapsed":75258,"internal_node_id":"0.0-2.0-0.32"},{"rt":1345,"stimulus":"images/Car/With_Backgrounds/difficulty4_image0.png","response":2,"category":"Car","background_difficulty":"4","image_path":"images/Car/With_Backgrounds/difficulty4_image0.png","trial_type":"image-button-response","trial_index":35,"time_elapsed":76604,"internal_node_id":"0.0-2.0-0.33"},{"rt":1112,"stimulus":"images/Human/With_Backgrounds/difficulty0_image6.png","response":5,"category":"Human","background_difficulty":"0","image_path":"images/Human/With_Backgrounds/difficulty0_image6.png","trial_type":"image-button-response","trial_index":36,"time_elapsed":77718,"internal_node_id":"0.0-2.0-0.34"},{"rt":1574,"stimulus":"images/Tree/With_Backgrounds/difficulty5_image2.png","response":6,"category":"Tree","background_difficulty":"5","image_path":"images/Tree/With_Backgrounds/difficulty5_image2.png","trial_type":"image-button-response","trial_index":37,"time_elapsed":79294,"internal_node_id":"0.0-2.0-0.35"},{"rt":1114,"stimulus":"images/Dog/With_Backgrounds/difficulty6_image3.png","response":4,"category":"Dog","background_difficulty":"6","image_path":"images/Dog/With_Backgrounds/difficulty6_image3.png","trial_type":"image-button-response","trial_index":38,"time_elapsed":80410,"internal_node_id":"0.0-2.0-0.36"},{"rt":1095,"stimulus":"images/Cat/With_Backgrounds/difficulty4_image4.png","response":3,"category":"Cat","background_difficulty":"4","image_path":"images/Cat/With_Backgrounds/difficulty4_image4.png","trial_type":"image-button-response","trial_index":39,"time_elapsed":81507,"internal_node_id":"0.0-2.0-0.37"},{"rt":1668,"stimulus":"images/Car/With_Backgrounds/difficulty0_image2.png","response":2,"category":"Car","background_difficulty":"0","image_path":"images/Car/With_Backgrounds/difficulty0_image2.png","trial_type":"image-button-response","trial_index":40,"time_elapsed":83176,"internal_node_id":"0.0-2.0-0.38"},{"rt":982,"stimulus":"images/Cat/With_Backgrounds/difficulty2_image6.png","response":3,"category":"Cat","background_difficulty":"2","image_path":"images/Cat/With_Backgrounds/difficulty2_image6.png","trial_type":"image-button-response","trial_index":41,"time_elapsed":84161,"internal_node_id":"0.0-2.0-0.39"},{"rt":1272,"stimulus":"images/Other/With_Backgrounds/difficulty5_image1.png","response":7,"category":"Other","background_difficulty":"5","image_path":"images/Other/With_Backgrounds/difficulty5_image1.png","trial_type":"image-button-response","trial_index":42,"time_elapsed":85434,"internal_node_id":"0.0-2.0-0.40"},{"rt":1086,"stimulus":"images/Boat/With_Backgrounds/difficulty0_image6.png","response":0,"category":"Boat","background_difficulty":"0","image_path":"images/Boat/With_Backgrounds/difficulty0_image6.png","trial_type":"image-button-response","trial_index":43,"time_elapsed":86522,"internal_node_id":"0.0-2.0-0.41"},{"rt":1133,"stimulus":"images/Boat/With_Backgrounds/difficulty2_image2.png","response":0,"category":"Boat","background_difficulty":"2","image_path":"images/Boat/With_Backgrounds/difficulty2_image2.png","trial_type":"image-button-response","trial_index":44,"time_elapsed":87657,"internal_node_id":"0.0-2.0-0.42"},{"rt":1041,"stimulus":"images/Boat/With_Backgrounds/difficulty5_image3.png","response":0,"category":"Boat","background_difficulty":"5","image_path":"images/Boat/With_Backgrounds/difficulty5_image3.png","trial_type":"image-button-response","trial_index":45,"time_elapsed":88699,"internal_node_id":"0.0-2.0-0.43"},{"rt":1177,"stimulus":"images/Car/With_Backgrounds/difficulty2_image3.png","response":2,"category":"Car","background_difficulty":"2","image_path":"images/Car/With_Backgrounds/difficulty2_image3.png","trial_type":"image-button-response","trial_index":46,"time_elapsed":89877,"internal_node_id":"0.0-2.0-0.44"},{"rt":1134,"stimulus":"images/Broccoli/With_Backgrounds/difficulty6_image2.png","response":1,"category":"Broccoli","background_difficulty":"6","image_path":"images/Broccoli/With_Backgrounds/difficulty6_image2.png","trial_type":"image-button-response","trial_index":47,"time_elapsed":91013,"internal_node_id":"0.0-2.0-0.45"},{"rt":1257,"stimulus":"images/Dog/With_Backgrounds/difficulty8_image6.png","response":4,"category":"Dog","background_difficulty":"8","image_path":"images/Dog/With_Backgrounds/difficulty8_image6.png","trial_type":"image-button-response","trial_index":48,"time_elapsed":92272,"internal_node_id":"0.0-2.0-0.46"},{"rt":1220,"stimulus":"images/Car/With_Backgrounds/difficulty1_image6.png","response":2,"category":"Car","background_difficulty":"1","image_path":"images/Car/With_Backgrounds/difficulty1_image6.png","trial_type":"image-button-response","trial_index":49,"time_elapsed":93493,"internal_node_id":"0.0-2.0-0.47"},{"rt":1011,"stimulus":"images/Broccoli/With_Backgrounds/difficulty8_image5.png","response":1,"category":"Broccoli","background_difficulty":"8","image_path":"images/Broccoli/With_Backgrounds/difficulty8_image5.png","trial_type":"image-button-response","trial_index":50,"time_elapsed":94506,"internal_node_id":"0.0-2.0-0.48"},{"rt":1085,"stimulus":"images/Human/With_Backgrounds/difficulty5_image9.png","response":5,"category":"Human","background_difficulty":"5","image_path":"images/Human/With_Backgrounds/difficulty5_image9.png","trial_type":"image-button-response","trial_index":51,"time_elapsed":95592,"internal_node_id":"0.0-2.0-0.49"},{"rt":1257,"stimulus":"images/Dog/With_Backgrounds/difficulty3_image9.png","response":4,"category":"Dog","background_difficulty":"3","image_path":"images/Dog/With_Backgrounds/difficulty3_image9.png","trial_type":"image-button-response","trial_index":52,"time_elapsed":96851,"internal_node_id":"0.0-2.0-0.50"},{"rt":1373,"stimulus":"images/Other/With_Backgrounds/difficulty8_image9.png","response":7,"category":"Other","background_difficulty":"8","image_path":"images/Other/With_Backgrounds/difficulty8_image9.png","trial_type":"image-button-response","trial_index":53,"time_elapsed":98226,"internal_node_id":"0.0-2.0-0.51"},{"rt":1215,"stimulus":"images/Tree/With_Backgrounds/difficulty0_image9.png","response":6,"category":"Tree","background_difficulty":"0","image_path":"images/Tree/With_Backgrounds/difficulty0_image9.png","trial_type":"image-button-response","trial_index":54,"time_elapsed":99443,"internal_node_id":"0.0-2.0-0.52"},{"rt":1335,"stimulus":"images/Broccoli/With_Backgrounds/difficulty5_image4.png","response":1,"category":"Broccoli","background_difficulty":"5","image_path":"images/Broccoli/With_Backgrounds/difficulty5_image4.png","trial_type":"image-button-response","trial_index":55,"time_elapsed":100779,"internal_node_id":"0.0-2.0-0.53"},{"rt":1366,"stimulus":"images/Other/With_Backgrounds/difficulty6_image2.png","response":7,"category":"Other","background_difficulty":"6","image_path":"images/Other/With_Backgrounds/difficulty6_image2.png","trial_type":"image-button-response","trial_index":56,"time_elapsed":102147,"internal_node_id":"0.0-2.0-0.54"},{"rt":1327,"stimulus":"images/Car/With_Backgrounds/difficulty8_image1.png","response":2,"category":"Car","background_difficulty":"8","image_path":"images/Car/With_Backgrounds/difficulty8_image1.png","trial_type":"image-button-response","trial_index":57,"time_elapsed":103476,"internal_node_id":"0.0-2.0-0.55"},{"rt":1549,"stimulus":"images/Other/With_Backgrounds/difficulty2_image3.png","response":7,"category":"Other","background_difficulty":"2","image_path":"images/Other/With_Backgrounds/difficulty2_image3.png","trial_type":"image-button-response","trial_index":58,"time_elapsed":105026,"internal_node_id":"0.0-2.0-0.56"},{"rt":1098,"stimulus":"images/Other/With_Backgrounds/difficulty0_image7.png","response":7,"category":"Other","background_difficulty":"0","image_path":"images/Other/With_Backgrounds/difficulty0_image7.png","trial_type":"image-button-response","trial_index":59,"time_elapsed":106125,"internal_node_id":"0.0-2.0-0.57"},{"rt":778,"stimulus":"images/Other/With_Backgrounds/difficulty3_image5.png","response":7,"category":"Other","background_difficulty":"3","image_path":"images/Other/With_Backgrounds/difficulty3_image5.png","trial_type":"image-button-response","trial_index":60,"time_elapsed":106903,"internal_node_id":"0.0-2.0-0.58"},{"rt":1092,"stimulus":"images/Broccoli/With_Backgrounds/difficulty3_image1.png","response":1,"category":"Broccoli","background_difficulty":"3","image_path":"images/Broccoli/With_Backgrounds/difficulty3_image1.png","trial_type":"image-button-response","trial_index":61,"time_elapsed":107996,"internal_node_id":"0.0-2.0-0.59"},{"rt":1112,"stimulus":"images/Tree/With_Backgrounds/difficulty7_image1.png","response":6,"category":"Tree","background_difficulty":"7","image_path":"images/Tree/With_Backgrounds/difficulty7_image1.png","trial_type":"image-button-response","trial_index":62,"time_elapsed":109110,"internal_node_id":"0.0-2.0-0.60"},{"rt":1065,"stimulus":"images/Dog/With_Backgrounds/difficulty2_image1.png","response":4,"category":"Dog","background_difficulty":"2","image_path":"images/Dog/With_Backgrounds/difficulty2_image1.png","trial_type":"image-button-response","trial_index":63,"time_elapsed":110176,"internal_node_id":"0.0-2.0-0.61"},{"rt":1027,"stimulus":"images/Cat/With_Backgrounds/difficulty5_image2.png","response":3,"category":"Cat","background_difficulty":"5","image_path":"images/Cat/With_Backgrounds/difficulty5_image2.png","trial_type":"image-button-response","trial_index":64,"time_elapsed":111205,"internal_node_id":"0.0-2.0-0.62"},{"rt":857,"stimulus":"images/Cat/With_Backgrounds/difficulty8_image0.png","response":3,"category":"Cat","background_difficulty":"8","image_path":"images/Cat/With_Backgrounds/difficulty8_image0.png","trial_type":"image-button-response","trial_index":65,"time_elapsed":112063,"internal_node_id":"0.0-2.0-0.63"},{"rt":979,"stimulus":"images/Broccoli/With_Backgrounds/difficulty7_image0.png","response":1,"category":"Broccoli","background_difficulty":"7","image_path":"images/Broccoli/With_Backgrounds/difficulty7_image0.png","trial_type":"image-button-response","trial_index":66,"time_elapsed":113044,"internal_node_id":"0.0-2.0-0.64"},{"rt":1111,"stimulus":"images/Dog/With_Backgrounds/difficulty7_image4.png","response":4,"category":"Dog","background_difficulty":"7","image_path":"images/Dog/With_Backgrounds/difficulty7_image4.png","trial_type":"image-button-response","trial_index":67,"time_elapsed":114156,"internal_node_id":"0.0-2.0-0.65"},{"rt":966,"stimulus":"images/Human/With_Backgrounds/difficulty3_image5.png","response":5,"category":"Human","background_difficulty":"3","image_path":"images/Human/With_Backgrounds/difficulty3_image5.png","trial_type":"image-button-response","trial_index":68,"time_elapsed":115123,"internal_node_id":"0.0-2.0-0.66"},{"rt":1300,"stimulus":"images/Boat/With_Backgrounds/difficulty1_image5.png","response":0,"category":"Boat","background_difficulty":"1","image_path":"images/Boat/With_Backgrounds/difficulty1_image5.png","trial_type":"image-button-response","trial_index":69,"time_elapsed":116425,"internal_node_id":"0.0-2.0-0.67"},{"rt":1315,"stimulus":"images/Cat/With_Backgrounds/difficulty7_image7.png","response":3,"category":"Cat","background_difficulty":"7","image_path":"images/Cat/With_Backgrounds/difficulty7_image7.png","trial_type":"image-button-response","trial_index":70,"time_elapsed":117742,"internal_node_id":"0.0-2.0-0.68"},{"rt":1185,"stimulus":"images/Dog/With_Backgrounds/difficulty4_image8.png","response":4,"category":"Dog","background_difficulty":"4","image_path":"images/Dog/With_Backgrounds/difficulty4_image8.png","trial_type":"image-button-response","trial_index":71,"time_elapsed":118928,"internal_node_id":"0.0-2.0-0.69"},{"rt":1058,"stimulus":"images/Cat/With_Backgrounds/difficulty0_image9.png","response":3,"category":"Cat","background_difficulty":"0","image_path":"images/Cat/With_Backgrounds/difficulty0_image9.png","trial_type":"image-button-response","trial_index":72,"time_elapsed":119987,"internal_node_id":"0.0-2.0-0.70"},{"rt":1287,"stimulus":"images/Tree/With_Backgrounds/difficulty3_image7.png","response":6,"category":"Tree","background_difficulty":"3","image_path":"images/Tree/With_Backgrounds/difficulty3_image7.png","trial_type":"image-button-response","trial_index":73,"time_elapsed":121276,"internal_node_id":"0.0-2.0-0.71"},{"rt":1611,"stimulus":["<h2>Press the button below to end experiment.</h2><p>Thank you for participating!</p>"],"response":0,"trial_type":"html-button-response","trial_index":74,"time_elapsed":122888,"internal_node_id":"0.0-3.0"}]