[{"success":true,"timeout":false,"failed_images":[],"failed_audio":[],"failed_video":[],"trial_type":"preload","trial_index":0,"time_elapsed":1095,"internal_node_id":"0.0-0.0"},{"rt":8569,"stimulus":["<h2>Noisy background image classification</h2><p>In this experiment you will briefly see images on top of colored squares of various sizes.</p><p>Your task is to report what each image is, selecting \"None of the Above\" if none of the given options are correct.</p> <p>The possible options are <strong>Boat</strong>, <strong>Broccoli</strong>, <strong>Car</strong>, <strong>Cat</strong>, <strong>Dog</strong>, <strong>Human</strong>, <strong>Tree</strong>, and <strong>None of the Above</strong>"],"response":0,"trial_type":"html-button-response","trial_index":1,"time_elapsed":9671,"internal_node_id":"0.0-1.0"},{"rt":2137,"stimulus":"images/Cat/With_Backgrounds/difficulty5_image7.png","response":3,"category":"Cat","background_difficulty":"5","image_path":"images/Cat/With_Backgrounds/difficulty5_image7.png","trial_type":"image-button-response","trial_index":2,"time_elapsed":11825,"internal_node_id":"0.0-2.0-0.0"},{"rt":1719,"stimulus":"images/Cat/With_Backgrounds/difficulty0_image3.png","response":3,"category":"Cat","background_difficulty":"0","image_path":"images/Cat/With_Backgrounds/difficulty0_image3.png","trial_type":"image-button-response","trial_index":3,"time_elapsed":13550,"internal_node_id":"0.0-2.0-0.1"},{"rt":2122,"stimulus":"images/Dog/With_Backgrounds/difficulty5_image2.png","response":4,"category":"Dog","background_difficulty":"5","image_path":"images/Dog/With_Backgrounds/difficulty5_image2.png","trial_type":"image-button-response","trial_index":4,"time_elapsed":15678,"internal_node_id":"0.0-2.0-0.2"},{"rt":8344,"stimulus":"images/Other/With_Backgrounds/difficulty6_image5.png","response":7,"category":"Other","background_difficulty":"6","image_path":"images/Other/With_Backgrounds/difficulty6_image5.png","trial_type":"image-button-response","trial_index":5,"time_elapsed":24028,"internal_node_id":"0.0-2.0-0.3"},{"rt":1720,"stimulus":"images/Broccoli/With_Backgrounds/difficulty3_image3.png","response":1,"category":"Broccoli","background_difficulty":"3","image_path":"images/Broccoli/With_Backgrounds/difficulty3_image3.png","trial_type":"image-button-response","trial_index":6,"time_elapsed":25753,"internal_node_id":"0.0-2.0-0.4"},{"rt":2545,"stimulus":"images/Tree/With_Backgrounds/difficulty2_image5.png","response":6,"category":"Tree","background_difficulty":"2","image_path":"images/Tree/With_Backgrounds/difficulty2_image5.png","trial_type":"image-button-response","trial_index":7,"time_elapsed":28303,"internal_node_id":"0.0-2.0-0.5"},{"rt":1536,"stimulus":"images/Dog/With_Backgrounds/difficulty8_image6.png","response":4,"category":"Dog","background_difficulty":"8","image_path":"images/Dog/With_Backgrounds/difficulty8_image6.png","trial_type":"image-button-response","trial_index":8,"time_elapsed":29845,"internal_node_id":"0.0-2.0-0.6"},{"rt":1523,"stimulus":"images/Broccoli/With_Backgrounds/difficulty1_image5.png","response":1,"category":"Broccoli","background_difficulty":"1","image_path":"images/Broccoli/With_Backgrounds/difficulty1_image5.png","trial_type":"image-button-response","trial_index":9,"time_elapsed":31374,"internal_node_id":"0.0-2.0-0.7"},{"rt":3071,"stimulus":"images/Boat/With_Backgrounds/difficulty8_image3.png","response":0,"category":"Boat","background_difficulty":"8","image_path":"images/Boat/With_Backgrounds/difficulty8_image3.png","trial_type":"image-button-response","trial_index":10,"time_elapsed":34450,"internal_node_id":"0.0-2.0-0.8"},{"rt":1534,"stimulus":"images/Dog/With_Backgrounds/difficulty3_image5.png","response":4,"category":"Dog","background_difficulty":"3","image_path":"images/Dog/With_Backgrounds/difficulty3_image5.png","trial_type":"image-button-response","trial_index":11,"time_elapsed":35990,"internal_node_id":"0.0-2.0-0.9"},{"rt":2122,"stimulus":"images/Human/With_Backgrounds/difficulty6_image8.png","response":5,"category":"Human","background_difficulty":"6","image_path":"images/Human/With_Backgrounds/difficulty6_image8.png","trial_type":"image-button-response","trial_index":12,"time_elapsed":38117,"internal_node_id":"0.0-2.0-0.10"},{"rt":1496,"stimulus":"images/Broccoli/With_Backgrounds/difficulty4_image6.png","response":1,"category":"Broccoli","background_difficulty":"4","image_path":"images/Broccoli/With_Backgrounds/difficulty4_image6.png","trial_type":"image-button-response","trial_index":13,"time_elapsed":39618,"internal_node_id":"0.0-2.0-0.11"},{"rt":1847,"stimulus":"images/Cat/With_Backgrounds/difficulty2_image4.png","response":3,"category":"Cat","background_difficulty":"2","image_path":"images/Cat/With_Backgrounds/difficulty2_image4.png","trial_type":"image-button-response","trial_index":14,"time_elapsed":41469,"internal_node_id":"0.0-2.0-0.12"},{"rt":1789,"stimulus":"images/Car/With_Backgrounds/difficulty5_image7.png","response":2,"category":"Car","background_difficulty":"5","image_path":"images/Car/With_Backgrounds/difficulty5_image7.png","trial_type":"image-button-response","trial_index":15,"time_elapsed":43263,"internal_node_id":"0.0-2.0-0.13"},{"rt":1283,"stimulus":"images/Boat/With_Backgrounds/difficulty7_image4.png","response":0,"category":"Boat","background_difficulty":"7","image_path":"images/Boat/With_Backgrounds/difficulty7_image4.png","trial_type":"image-button-response","trial_index":16,"time_elapsed":44551,"internal_node_id":"0.0-2.0-0.14"},{"rt":1661,"stimulus":"images/Human/With_Backgrounds/difficulty4_image5.png","response":5,"category":"Human","background_difficulty":"4","image_path":"images/Human/With_Backgrounds/difficulty4_image5.png","trial_type":"image-button-response","trial_index":17,"time_elapsed":46218,"internal_node_id":"0.0-2.0-0.15"},{"rt":1415,"stimulus":"images/Cat/With_Backgrounds/difficulty6_image0.png","response":3,"category":"Cat","background_difficulty":"6","image_path":"images/Cat/With_Backgrounds/difficulty6_image0.png","trial_type":"image-button-response","trial_index":18,"time_elapsed":47639,"internal_node_id":"0.0-2.0-0.16"},{"rt":1483,"stimulus":"images/Dog/With_Backgrounds/difficulty1_image4.png","response":4,"category":"Dog","background_difficulty":"1","image_path":"images/Dog/With_Backgrounds/difficulty1_image4.png","trial_type":"image-button-response","trial_index":19,"time_elapsed":49128,"internal_node_id":"0.0-2.0-0.17"},{"rt":3175,"stimulus":"images/Other/With_Backgrounds/difficulty5_image1.png","response":7,"category":"Other","background_difficulty":"5","image_path":"images/Other/With_Backgrounds/difficulty5_image1.png","trial_type":"image-button-response","trial_index":20,"time_elapsed":52309,"internal_node_id":"0.0-2.0-0.18"},{"rt":1433,"stimulus":"images/Car/With_Backgrounds/difficulty7_image9.png","response":2,"category":"Car","background_difficulty":"7","image_path":"images/Car/With_Backgrounds/difficulty7_image9.png","trial_type":"image-button-response","trial_index":21,"time_elapsed":53748,"internal_node_id":"0.0-2.0-0.19"},{"rt":1271,"stimulus":"images/Broccoli/With_Backgrounds/difficulty0_image8.png","response":1,"category":"Broccoli","background_difficulty":"0","image_path":"images/Broccoli/With_Backgrounds/difficulty0_image8.png","trial_type":"image-button-response","trial_index":22,"time_elapsed":55024,"internal_node_id":"0.0-2.0-0.20"},{"rt":1487,"stimulus":"images/Boat/With_Backgrounds/difficulty6_image9.png","response":0,"category":"Boat","background_difficulty":"6","image_path":"images/Boat/With_Backgrounds/difficulty6_image9.png","trial_type":"image-button-response","trial_index":23,"time_elapsed":56516,"internal_node_id":"0.0-2.0-0.21"},{"rt":2772,"stimulus":"images/Other/With_Backgrounds/difficulty3_image8.png","response":7,"category":"Other","background_difficulty":"3","image_path":"images/Other/With_Backgrounds/difficulty3_image8.png","trial_type":"image-button-response","trial_index":24,"time_elapsed":59295,"internal_node_id":"0.0-2.0-0.22"},{"rt":1392,"stimulus":"images/Cat/With_Backgrounds/difficulty8_image2.png","response":3,"category":"Cat","background_difficulty":"8","image_path":"images/Cat/With_Backgrounds/difficulty8_image2.png","trial_type":"image-button-response","trial_index":25,"time_elapsed":60692,"internal_node_id":"0.0-2.0-0.23"},{"rt":1849,"stimulus":"images/Boat/With_Backgrounds/difficulty5_image0.png","response":0,"category":"Boat","background_difficulty":"5","image_path":"images/Boat/With_Backgrounds/difficulty5_image0.png","trial_type":"image-button-response","trial_index":26,"time_elapsed":62546,"internal_node_id":"0.0-2.0-0.24"},{"rt":1287,"stimulus":"images/Car/With_Backgrounds/difficulty3_image8.png","response":2,"category":"Car","background_difficulty":"3","image_path":"images/Car/With_Backgrounds/difficulty3_image8.png","trial_type":"image-button-response","trial_index":27,"time_elapsed":63838,"internal_node_id":"0.0-2.0-0.25"},{"rt":1203,"stimulus":"images/Car/With_Backgrounds/difficulty4_image0.png","response":2,"category":"Car","background_difficulty":"4","image_path":"images/Car/With_Backgrounds/difficulty4_image0.png","trial_type":"image-button-response","trial_index":28,"time_elapsed":65046,"internal_node_id":"0.0-2.0-0.26"},{"rt":1501,"stimulus":"images/Cat/With_Backgrounds/difficulty3_image9.png","response":3,"category":"Cat","background_difficulty":"3","image_path":"images/Cat/With_Backgrounds/difficulty3_image9.png","trial_type":"image-button-response","trial_index":29,"time_elapsed":66553,"internal_node_id":"0.0-2.0-0.27"},{"rt":1403,"stimulus":"images/Human/With_Backgrounds/difficulty2_image1.png","response":5,"category":"Human","background_difficulty":"2","image_path":"images/Human/With_Backgrounds/difficulty2_image1.png","trial_type":"image-button-response","trial_index":30,"time_elapsed":67961,"internal_node_id":"0.0-2.0-0.28"},{"rt":1655,"stimulus":"images/Dog/With_Backgrounds/difficulty4_image0.png","response":4,"category":"Dog","background_difficulty":"4","image_path":"images/Dog/With_Backgrounds/difficulty4_image0.png","trial_type":"image-button-response","trial_index":31,"time_elapsed":69621,"internal_node_id":"0.0-2.0-0.29"},{"rt":1570,"stimulus":"images/Other/With_Backgrounds/difficulty1_image7.png","response":7,"category":"Other","background_difficulty":"1","image_path":"images/Other/With_Backgrounds/difficulty1_image7.png","trial_type":"image-button-response","trial_index":32,"time_elapsed":71198,"internal_node_id":"0.0-2.0-0.30"},{"rt":1708,"stimulus":"images/Car/With_Backgrounds/difficulty8_image5.png","response":2,"category":"Car","background_difficulty":"8","image_path":"images/Car/With_Backgrounds/difficulty8_image5.png","trial_type":"image-button-response","trial_index":33,"time_elapsed":72912,"internal_node_id":"0.0-2.0-0.31"},{"rt":1185,"stimulus":"images/Broccoli/With_Backgrounds/difficulty2_image1.png","response":1,"category":"Broccoli","background_difficulty":"2","image_path":"images/Broccoli/With_Backgrounds/difficulty2_image1.png","trial_type":"image-button-response","trial_index":34,"time_elapsed":74102,"internal_node_id":"0.0-2.0-0.32"},{"rt":1509,"stimulus":"images/Dog/With_Backgrounds/difficulty6_image7.png","response":4,"category":"Dog","background_difficulty":"6","image_path":"images/Dog/With_Backgrounds/difficulty6_image7.png","trial_type":"image-button-response","trial_index":35,"time_elapsed":75616,"internal_node_id":"0.0-2.0-0.33"},{"rt":1288,"stimulus":"images/Car/With_Backgrounds/difficulty6_image6.png","response":0,"category":"Car","background_difficulty":"6","image_path":"images/Car/With_Backgrounds/difficulty6_image6.png","trial_type":"image-button-response","trial_index":36,"time_elapsed":76910,"internal_node_id":"0.0-2.0-0.34"},{"rt":2381,"stimulus":"images/Broccoli/With_Backgrounds/difficulty8_image0.png","response":1,"category":"Broccoli","background_difficulty":"8","image_path":"images/Broccoli/With_Backgrounds/difficulty8_image0.png","trial_type":"image-button-response","trial_index":37,"time_elapsed":79295,"internal_node_id":"0.0-2.0-0.35"},{"rt":1487,"stimulus":"images/Cat/With_Backgrounds/difficulty7_image6.png","response":3,"category":"Cat","background_difficulty":"7","image_path":"images/Cat/With_Backgrounds/difficulty7_image6.png","trial_type":"image-button-response","trial_index":38,"time_elapsed":80787,"internal_node_id":"0.0-2.0-0.36"},{"rt":2548,"stimulus":"images/Other/With_Backgrounds/difficulty0_image0.png","response":7,"category":"Other","background_difficulty":"0","image_path":"images/Other/With_Backgrounds/difficulty0_image0.png","trial_type":"image-button-response","trial_index":39,"time_elapsed":83342,"internal_node_id":"0.0-2.0-0.37"},{"rt":1431,"stimulus":"images/Broccoli/With_Backgrounds/difficulty6_image7.png","response":1,"category":"Broccoli","background_difficulty":"6","image_path":"images/Broccoli/With_Backgrounds/difficulty6_image7.png","trial_type":"image-button-response","trial_index":40,"time_elapsed":84777,"internal_node_id":"0.0-2.0-0.38"},{"rt":2091,"stimulus":"images/Car/With_Backgrounds/difficulty0_image4.png","response":2,"category":"Car","background_difficulty":"0","image_path":"images/Car/With_Backgrounds/difficulty0_image4.png","trial_type":"image-button-response","trial_index":41,"time_elapsed":86874,"internal_node_id":"0.0-2.0-0.39"},{"rt":2757,"stimulus":"images/Tree/With_Backgrounds/difficulty6_image4.png","response":7,"category":"Tree","background_difficulty":"6","image_path":"images/Tree/With_Backgrounds/difficulty6_image4.png","trial_type":"image-button-response","trial_index":42,"time_elapsed":89636,"internal_node_id":"0.0-2.0-0.40"},{"rt":3096,"stimulus":"images/Other/With_Backgrounds/difficulty7_image4.png","response":7,"category":"Other","background_difficulty":"7","image_path":"images/Other/With_Backgrounds/difficulty7_image4.png","trial_type":"image-button-response","trial_index":43,"time_elapsed":92737,"internal_node_id":"0.0-2.0-0.41"},{"rt":1416,"stimulus":"images/Boat/With_Backgrounds/difficulty2_image1.png","response":0,"category":"Boat","background_difficulty":"2","image_path":"images/Boat/With_Backgrounds/difficulty2_image1.png","trial_type":"image-button-response","trial_index":44,"time_elapsed":94159,"internal_node_id":"0.0-2.0-0.42"},{"rt":1533,"stimulus":"images/Broccoli/With_Backgrounds/difficulty7_image4.png","response":1,"category":"Broccoli","background_difficulty":"7","image_path":"images/Broccoli/With_Backgrounds/difficulty7_image4.png","trial_type":"image-button-response","trial_index":45,"time_elapsed":95696,"internal_node_id":"0.0-2.0-0.43"},{"rt":1411,"stimulus":"images/Human/With_Backgrounds/difficulty0_image9.png","response":5,"category":"Human","background_difficulty":"0","image_path":"images/Human/With_Backgrounds/difficulty0_image9.png","trial_type":"image-button-response","trial_index":46,"time_elapsed":97113,"internal_node_id":"0.0-2.0-0.44"},{"rt":2272,"stimulus":"images/Dog/With_Backgrounds/difficulty0_image1.png","response":4,"category":"Dog","background_difficulty":"0","image_path":"images/Dog/With_Backgrounds/difficulty0_image1.png","trial_type":"image-button-response","trial_index":47,"time_elapsed":99391,"internal_node_id":"0.0-2.0-0.45"},{"rt":1323,"stimulus":"images/Human/With_Backgrounds/difficulty1_image0.png","response":5,"category":"Human","background_difficulty":"1","image_path":"images/Human/With_Backgrounds/difficulty1_image0.png","trial_type":"image-button-response","trial_index":48,"time_elapsed":100720,"internal_node_id":"0.0-2.0-0.46"},{"rt":3331,"stimulus":"images/Tree/With_Backgrounds/difficulty3_image0.png","response":6,"category":"Tree","background_difficulty":"3","image_path":"images/Tree/With_Backgrounds/difficulty3_image0.png","trial_type":"image-button-response","trial_index":49,"time_elapsed":104056,"internal_node_id":"0.0-2.0-0.47"},{"rt":1536,"stimulus":"images/Tree/With_Backgrounds/difficulty1_image8.png","response":6,"category":"Tree","background_difficulty":"1","image_path":"images/Tree/With_Backgrounds/difficulty1_image8.png","trial_type":"image-button-response","trial_index":50,"time_elapsed":105608,"internal_node_id":"0.0-2.0-0.48"},{"rt":1300,"stimulus":"images/Human/With_Backgrounds/difficulty8_image7.png","response":5,"category":"Human","background_difficulty":"8","image_path":"images/Human/With_Backgrounds/difficulty8_image7.png","trial_type":"image-button-response","trial_index":51,"time_elapsed":106914,"internal_node_id":"0.0-2.0-0.49"},{"rt":1504,"stimulus":"images/Broccoli/With_Backgrounds/difficulty5_image2.png","response":1,"category":"Broccoli","background_difficulty":"5","image_path":"images/Broccoli/With_Backgrounds/difficulty5_image2.png","trial_type":"image-button-response","trial_index":52,"time_elapsed":108423,"internal_node_id":"0.0-2.0-0.50"},{"rt":2498,"stimulus":"images/Other/With_Backgrounds/difficulty2_image6.png","response":7,"category":"Other","background_difficulty":"2","image_path":"images/Other/With_Backgrounds/difficulty2_image6.png","trial_type":"image-button-response","trial_index":53,"time_elapsed":110928,"internal_node_id":"0.0-2.0-0.51"},{"rt":1811,"stimulus":"images/Dog/With_Backgrounds/difficulty7_image9.png","response":4,"category":"Dog","background_difficulty":"7","image_path":"images/Dog/With_Backgrounds/difficulty7_image9.png","trial_type":"image-button-response","trial_index":54,"time_elapsed":112746,"internal_node_id":"0.0-2.0-0.52"},{"rt":1193,"stimulus":"images/Dog/With_Backgrounds/difficulty2_image8.png","response":4,"category":"Dog","background_difficulty":"2","image_path":"images/Dog/With_Backgrounds/difficulty2_image8.png","trial_type":"image-button-response","trial_index":55,"time_elapsed":113944,"internal_node_id":"0.0-2.0-0.53"},{"rt":1535,"stimulus":"images/Car/With_Backgrounds/difficulty2_image1.png","response":2,"category":"Car","background_difficulty":"2","image_path":"images/Car/With_Backgrounds/difficulty2_image1.png","trial_type":"image-button-response","trial_index":56,"time_elapsed":115484,"internal_node_id":"0.0-2.0-0.54"},{"rt":1530,"stimulus":"images/Boat/With_Backgrounds/difficulty1_image6.png","response":0,"category":"Boat","background_difficulty":"1","image_path":"images/Boat/With_Backgrounds/difficulty1_image6.png","trial_type":"image-button-response","trial_index":57,"time_elapsed":117019,"internal_node_id":"0.0-2.0-0.55"},{"rt":1643,"stimulus":"images/Tree/With_Backgrounds/difficulty8_image6.png","response":6,"category":"Tree","background_difficulty":"8","image_path":"images/Tree/With_Backgrounds/difficulty8_image6.png","trial_type":"image-button-response","trial_index":58,"time_elapsed":118668,"internal_node_id":"0.0-2.0-0.56"},{"rt":1674,"stimulus":"images/Other/With_Backgrounds/difficulty4_image2.png","response":7,"category":"Other","background_difficulty":"4","image_path":"images/Other/With_Backgrounds/difficulty4_image2.png","trial_type":"image-button-response","trial_index":59,"time_elapsed":120347,"internal_node_id":"0.0-2.0-0.57"},{"rt":1288,"stimulus":"images/Human/With_Backgrounds/difficulty5_image6.png","response":5,"category":"Human","background_difficulty":"5","image_path":"images/Human/With_Backgrounds/difficulty5_image6.png","trial_type":"image-button-response","trial_index":60,"time_elapsed":121641,"internal_node_id":"0.0-2.0-0.58"},{"rt":1793,"stimulus":"images/Tree/With_Backgrounds/difficulty5_image3.png","response":6,"category":"Tree","background_difficulty":"5","image_path":"images/Tree/With_Backgrounds/difficulty5_image3.png","trial_type":"image-button-response","trial_index":61,"time_elapsed":123439,"internal_node_id":"0.0-2.0-0.59"},{"rt":1551,"stimulus":"images/Cat/With_Backgrounds/difficulty1_image1.png","response":3,"category":"Cat","background_difficulty":"1","image_path":"images/Cat/With_Backgrounds/difficulty1_image1.png","trial_type":"image-button-response","trial_index":62,"time_elapsed":124995,"internal_node_id":"0.0-2.0-0.60"},{"rt":1354,"stimulus":"images/Tree/With_Backgrounds/difficulty7_image9.png","response":6,"category":"Tree","background_difficulty":"7","image_path":"images/Tree/With_Backgrounds/difficulty7_image9.png","trial_type":"image-button-response","trial_index":63,"time_elapsed":126356,"internal_node_id":"0.0-2.0-0.61"},{"rt":1515,"stimulus":"images/Cat/With_Backgrounds/difficulty4_image5.png","response":3,"category":"Cat","background_difficulty":"4","image_path":"images/Cat/With_Backgrounds/difficulty4_image5.png","trial_type":"image-button-response","trial_index":64,"time_elapsed":127876,"internal_node_id":"0.0-2.0-0.62"},{"rt":1800,"stimulus":"images/Boat/With_Backgrounds/difficulty3_image7.png","response":0,"category":"Boat","background_difficulty":"3","image_path":"images/Boat/With_Backgrounds/difficulty3_image7.png","trial_type":"image-button-response","trial_index":65,"time_elapsed":129681,"internal_node_id":"0.0-2.0-0.63"},{"rt":1429,"stimulus":"images/Tree/With_Backgrounds/difficulty0_image7.png","response":6,"category":"Tree","background_difficulty":"0","image_path":"images/Tree/With_Backgrounds/difficulty0_image7.png","trial_type":"image-button-response","trial_index":66,"time_elapsed":131117,"internal_node_id":"0.0-2.0-0.64"},{"rt":1141,"stimulus":"images/Human/With_Backgrounds/difficulty3_image3.png","response":5,"category":"Human","background_difficulty":"3","image_path":"images/Human/With_Backgrounds/difficulty3_image3.png","trial_type":"image-button-response","trial_index":67,"time_elapsed":132264,"internal_node_id":"0.0-2.0-0.65"},{"rt":1387,"stimulus":"images/Boat/With_Backgrounds/difficulty0_image8.png","response":0,"category":"Boat","background_difficulty":"0","image_path":"images/Boat/With_Backgrounds/difficulty0_image8.png","trial_type":"image-button-response","trial_index":68,"time_elapsed":133656,"internal_node_id":"0.0-2.0-0.66"},{"rt":1337,"stimulus":"images/Other/With_Backgrounds/difficulty8_image3.png","response":7,"category":"Other","background_difficulty":"8","image_path":"images/Other/With_Backgrounds/difficulty8_image3.png","trial_type":"image-button-response","trial_index":69,"time_elapsed":134999,"internal_node_id":"0.0-2.0-0.67"},{"rt":1989,"stimulus":"images/Car/With_Backgrounds/difficulty1_image3.png","response":2,"category":"Car","background_difficulty":"1","image_path":"images/Car/With_Backgrounds/difficulty1_image3.png","trial_type":"image-button-response","trial_index":70,"time_elapsed":136992,"internal_node_id":"0.0-2.0-0.68"},{"rt":1540,"stimulus":"images/Tree/With_Backgrounds/difficulty4_image1.png","response":6,"category":"Tree","background_difficulty":"4","image_path":"images/Tree/With_Backgrounds/difficulty4_image1.png","trial_type":"image-button-response","trial_index":71,"time_elapsed":138540,"internal_node_id":"0.0-2.0-0.69"},{"rt":1371,"stimulus":"images/Boat/With_Backgrounds/difficulty4_image2.png","response":0,"category":"Boat","background_difficulty":"4","image_path":"images/Boat/With_Backgrounds/difficulty4_image2.png","trial_type":"image-button-response","trial_index":72,"time_elapsed":139916,"internal_node_id":"0.0-2.0-0.70"},{"rt":1213,"stimulus":"images/Human/With_Backgrounds/difficulty7_image4.png","response":5,"category":"Human","background_difficulty":"7","image_path":"images/Human/With_Backgrounds/difficulty7_image4.png","trial_type":"image-button-response","trial_index":73,"time_elapsed":141134,"internal_node_id":"0.0-2.0-0.71"},{"rt":1193,"stimulus":["<h2>Press the button below to end experiment.</h2><p>Thank you for participating!</p>"],"response":0,"trial_type":"html-button-response","trial_index":74,"time_elapsed":142331,"internal_node_id":"0.0-3.0"}]