[{"success":true,"timeout":false,"failed_images":[],"failed_audio":[],"failed_video":[],"trial_type":"preload","trial_index":0,"time_elapsed":2115,"internal_node_id":"0.0-0.0"},{"rt":10045,"stimulus":["<h2>Noisy background image classification</h2><p>In this experiment you will briefly see images on top of colored squares of various sizes.</p><p>Your task is to report what each image is, selecting \"None of the Above\" if none of the given options are correct.</p> <p>The possible options are <strong>Boat</strong>, <strong>Broccoli</strong>, <strong>Car</strong>, <strong>Cat</strong>, <strong>Dog</strong>, <strong>Human</strong>, <strong>Tree</strong>, and <strong>None of the Above</strong>"],"response":0,"trial_type":"html-button-response","trial_index":1,"time_elapsed":12171,"internal_node_id":"0.0-1.0"},{"rt":3851,"stimulus":"images/Boat/With_Backgrounds/difficulty7_image1.png","response":0,"category":"Boat","background_difficulty":"7","image_path":"images/Boat/With_Backgrounds/difficulty7_image1.png","trial_type":"image-button-response","trial_index":2,"time_elapsed":16095,"internal_node_id":"0.0-2.0-0.0"},{"rt":2146,"stimulus":"images/Human/With_Backgrounds/difficulty0_image2.png","response":5,"category":"Human","background_difficulty":"0","image_path":"images/Human/With_Backgrounds/difficulty0_image2.png","trial_type":"image-button-response","trial_index":3,"time_elapsed":18254,"internal_node_id":"0.0-2.0-0.1"},{"rt":1334,"stimulus":"images/Tree/With_Backgrounds/difficulty3_image2.png","response":6,"category":"Tree","background_difficulty":"3","image_path":"images/Tree/With_Backgrounds/difficulty3_image2.png","trial_type":"image-button-response","trial_index":4,"time_elapsed":19604,"internal_node_id":"0.0-2.0-0.2"},{"rt":1572,"stimulus":"images/Car/With_Backgrounds/difficulty2_image9.png","response":2,"category":"Car","background_difficulty":"2","image_path":"images/Car/With_Backgrounds/difficulty2_image9.png","trial_type":"image-button-response","trial_index":5,"time_elapsed":21192,"internal_node_id":"0.0-2.0-0.3"},{"rt":2305,"stimulus":"images/Other/With_Backgrounds/difficulty0_image7.png","response":7,"category":"Other","background_difficulty":"0","image_path":"images/Other/With_Backgrounds/difficulty0_image7.png","trial_type":"image-button-response","trial_index":6,"time_elapsed":23512,"internal_node_id":"0.0-2.0-0.4"},{"rt":1771,"stimulus":"images/Dog/With_Backgrounds/difficulty7_image1.png","response":4,"category":"Dog","background_difficulty":"7","image_path":"images/Dog/With_Backgrounds/difficulty7_image1.png","trial_type":"image-button-response","trial_index":7,"time_elapsed":25297,"internal_node_id":"0.0-2.0-0.5"},{"rt":1644,"stimulus":"images/Broccoli/With_Backgrounds/difficulty0_image7.png","response":1,"category":"Broccoli","background_difficulty":"0","image_path":"images/Broccoli/With_Backgrounds/difficulty0_image7.png","trial_type":"image-button-response","trial_index":8,"time_elapsed":26950,"internal_node_id":"0.0-2.0-0.6"},{"rt":1511,"stimulus":"images/Human/With_Backgrounds/difficulty4_image5.png","response":5,"category":"Human","background_difficulty":"4","image_path":"images/Human/With_Backgrounds/difficulty4_image5.png","trial_type":"image-button-response","trial_index":9,"time_elapsed":28472,"internal_node_id":"0.0-2.0-0.7"},{"rt":3266,"stimulus":"images/Other/With_Backgrounds/difficulty1_image0.png","response":7,"category":"Other","background_difficulty":"1","image_path":"images/Other/With_Backgrounds/difficulty1_image0.png","trial_type":"image-button-response","trial_index":10,"time_elapsed":31753,"internal_node_id":"0.0-2.0-0.8"},{"rt":1804,"stimulus":"images/Dog/With_Backgrounds/difficulty5_image7.png","response":4,"category":"Dog","background_difficulty":"5","image_path":"images/Dog/With_Backgrounds/difficulty5_image7.png","trial_type":"image-button-response","trial_index":11,"time_elapsed":33572,"internal_node_id":"0.0-2.0-0.9"},{"rt":1502,"stimulus":"images/Other/With_Backgrounds/difficulty5_image5.png","response":7,"category":"Other","background_difficulty":"5","image_path":"images/Other/With_Backgrounds/difficulty5_image5.png","trial_type":"image-button-response","trial_index":12,"time_elapsed":35088,"internal_node_id":"0.0-2.0-0.10"},{"rt":1850,"stimulus":"images/Boat/With_Backgrounds/difficulty8_image2.png","response":0,"category":"Boat","background_difficulty":"8","image_path":"images/Boat/With_Backgrounds/difficulty8_image2.png","trial_type":"image-button-response","trial_index":13,"time_elapsed":36953,"internal_node_id":"0.0-2.0-0.11"},{"rt":1386,"stimulus":"images/Tree/With_Backgrounds/difficulty2_image4.png","response":6,"category":"Tree","background_difficulty":"2","image_path":"images/Tree/With_Backgrounds/difficulty2_image4.png","trial_type":"image-button-response","trial_index":14,"time_elapsed":38356,"internal_node_id":"0.0-2.0-0.12"},{"rt":1830,"stimulus":"images/Car/With_Backgrounds/difficulty4_image1.png","response":2,"category":"Car","background_difficulty":"4","image_path":"images/Car/With_Backgrounds/difficulty4_image1.png","trial_type":"image-button-response","trial_index":15,"time_elapsed":40200,"internal_node_id":"0.0-2.0-0.13"},{"rt":2012,"stimulus":"images/Other/With_Backgrounds/difficulty6_image9.png","response":7,"category":"Other","background_difficulty":"6","image_path":"images/Other/With_Backgrounds/difficulty6_image9.png","trial_type":"image-button-response","trial_index":16,"time_elapsed":42227,"internal_node_id":"0.0-2.0-0.14"},{"rt":2004,"stimulus":"images/Other/With_Backgrounds/difficulty8_image4.png","response":7,"category":"Other","background_difficulty":"8","image_path":"images/Other/With_Backgrounds/difficulty8_image4.png","trial_type":"image-button-response","trial_index":17,"time_elapsed":44248,"internal_node_id":"0.0-2.0-0.15"},{"rt":1657,"stimulus":"images/Tree/With_Backgrounds/difficulty4_image8.png","response":6,"category":"Tree","background_difficulty":"4","image_path":"images/Tree/With_Backgrounds/difficulty4_image8.png","trial_type":"image-button-response","trial_index":18,"time_elapsed":45920,"internal_node_id":"0.0-2.0-0.16"},{"rt":1588,"stimulus":"images/Cat/With_Backgrounds/difficulty8_image3.png","response":3,"category":"Cat","background_difficulty":"8","image_path":"images/Cat/With_Backgrounds/difficulty8_image3.png","trial_type":"image-button-response","trial_index":19,"time_elapsed":47523,"internal_node_id":"0.0-2.0-0.17"},{"rt":1377,"stimulus":"images/Car/With_Backgrounds/difficulty8_image0.png","response":2,"category":"Car","background_difficulty":"8","image_path":"images/Car/With_Backgrounds/difficulty8_image0.png","trial_type":"image-button-response","trial_index":20,"time_elapsed":48913,"internal_node_id":"0.0-2.0-0.18"},{"rt":1159,"stimulus":"images/Human/With_Backgrounds/difficulty5_image1.png","response":5,"category":"Human","background_difficulty":"5","image_path":"images/Human/With_Backgrounds/difficulty5_image1.png","trial_type":"image-button-response","trial_index":21,"time_elapsed":50090,"internal_node_id":"0.0-2.0-0.19"},{"rt":1366,"stimulus":"images/Cat/With_Backgrounds/difficulty0_image9.png","response":3,"category":"Cat","background_difficulty":"0","image_path":"images/Cat/With_Backgrounds/difficulty0_image9.png","trial_type":"image-button-response","trial_index":22,"time_elapsed":51469,"internal_node_id":"0.0-2.0-0.20"},{"rt":1268,"stimulus":"images/Tree/With_Backgrounds/difficulty8_image6.png","response":6,"category":"Tree","background_difficulty":"8","image_path":"images/Tree/With_Backgrounds/difficulty8_image6.png","trial_type":"image-button-response","trial_index":23,"time_elapsed":52748,"internal_node_id":"0.0-2.0-0.21"},{"rt":1193,"stimulus":"images/Tree/With_Backgrounds/difficulty7_image7.png","response":6,"category":"Tree","background_difficulty":"7","image_path":"images/Tree/With_Backgrounds/difficulty7_image7.png","trial_type":"image-button-response","trial_index":24,"time_elapsed":53957,"internal_node_id":"0.0-2.0-0.22"},{"rt":1388,"stimulus":"images/Boat/With_Backgrounds/difficulty5_image4.png","response":0,"category":"Boat","background_difficulty":"5","image_path":"images/Boat/With_Backgrounds/difficulty5_image4.png","trial_type":"image-button-response","trial_index":25,"time_elapsed":55359,"internal_node_id":"0.0-2.0-0.23"},{"rt":1356,"stimulus":"images/Broccoli/With_Backgrounds/difficulty8_image1.png","response":1,"category":"Broccoli","background_difficulty":"8","image_path":"images/Broccoli/With_Backgrounds/difficulty8_image1.png","trial_type":"image-button-response","trial_index":26,"time_elapsed":56730,"internal_node_id":"0.0-2.0-0.24"},{"rt":1222,"stimulus":"images/Boat/With_Backgrounds/difficulty3_image6.png","response":0,"category":"Boat","background_difficulty":"3","image_path":"images/Boat/With_Backgrounds/difficulty3_image6.png","trial_type":"image-button-response","trial_index":27,"time_elapsed":57966,"internal_node_id":"0.0-2.0-0.25"},{"rt":1340,"stimulus":"images/Dog/With_Backgrounds/difficulty2_image2.png","response":4,"category":"Dog","background_difficulty":"2","image_path":"images/Dog/With_Backgrounds/difficulty2_image2.png","trial_type":"image-button-response","trial_index":28,"time_elapsed":59321,"internal_node_id":"0.0-2.0-0.26"},{"rt":1246,"stimulus":"images/Cat/With_Backgrounds/difficulty3_image2.png","response":3,"category":"Cat","background_difficulty":"3","image_path":"images/Cat/With_Backgrounds/difficulty3_image2.png","trial_type":"image-button-response","trial_index":29,"time_elapsed":60582,"internal_node_id":"0.0-2.0-0.27"},{"rt":1133,"stimulus":"images/Cat/With_Backgrounds/difficulty5_image7.png","response":3,"category":"Cat","background_difficulty":"5","image_path":"images/Cat/With_Backgrounds/difficulty5_image7.png","trial_type":"image-button-response","trial_index":30,"time_elapsed":61732,"internal_node_id":"0.0-2.0-0.28"},{"rt":1243,"stimulus":"images/Cat/With_Backgrounds/difficulty1_image8.png","response":3,"category":"Cat","background_difficulty":"1","image_path":"images/Cat/With_Backgrounds/difficulty1_image8.png","trial_type":"image-button-response","trial_index":31,"time_elapsed":62989,"internal_node_id":"0.0-2.0-0.29"},{"rt":1189,"stimulus":"images/Car/With_Backgrounds/difficulty5_image8.png","response":2,"category":"Car","background_difficulty":"5","image_path":"images/Car/With_Backgrounds/difficulty5_image8.png","trial_type":"image-button-response","trial_index":32,"time_elapsed":64195,"internal_node_id":"0.0-2.0-0.30"},{"rt":1211,"stimulus":"images/Human/With_Backgrounds/difficulty2_image8.png","response":5,"category":"Human","background_difficulty":"2","image_path":"images/Human/With_Backgrounds/difficulty2_image8.png","trial_type":"image-button-response","trial_index":33,"time_elapsed":65425,"internal_node_id":"0.0-2.0-0.31"},{"rt":1260,"stimulus":"images/Boat/With_Backgrounds/difficulty4_image3.png","response":0,"category":"Boat","background_difficulty":"4","image_path":"images/Boat/With_Backgrounds/difficulty4_image3.png","trial_type":"image-button-response","trial_index":34,"time_elapsed":66699,"internal_node_id":"0.0-2.0-0.32"},{"rt":1219,"stimulus":"images/Broccoli/With_Backgrounds/difficulty6_image2.png","response":1,"category":"Broccoli","background_difficulty":"6","image_path":"images/Broccoli/With_Backgrounds/difficulty6_image2.png","trial_type":"image-button-response","trial_index":35,"time_elapsed":67933,"internal_node_id":"0.0-2.0-0.33"},{"rt":1356,"stimulus":"images/Tree/With_Backgrounds/difficulty1_image1.png","response":6,"category":"Tree","background_difficulty":"1","image_path":"images/Tree/With_Backgrounds/difficulty1_image1.png","trial_type":"image-button-response","trial_index":36,"time_elapsed":69305,"internal_node_id":"0.0-2.0-0.34"},{"rt":1352,"stimulus":"images/Dog/With_Backgrounds/difficulty8_image0.png","response":4,"category":"Dog","background_difficulty":"8","image_path":"images/Dog/With_Backgrounds/difficulty8_image0.png","trial_type":"image-button-response","trial_index":37,"time_elapsed":70673,"internal_node_id":"0.0-2.0-0.35"},{"rt":1379,"stimulus":"images/Broccoli/With_Backgrounds/difficulty5_image8.png","response":1,"category":"Broccoli","background_difficulty":"5","image_path":"images/Broccoli/With_Backgrounds/difficulty5_image8.png","trial_type":"image-button-response","trial_index":38,"time_elapsed":72067,"internal_node_id":"0.0-2.0-0.36"},{"rt":1200,"stimulus":"images/Boat/With_Backgrounds/difficulty0_image0.png","response":0,"category":"Boat","background_difficulty":"0","image_path":"images/Boat/With_Backgrounds/difficulty0_image0.png","trial_type":"image-button-response","trial_index":39,"time_elapsed":73282,"internal_node_id":"0.0-2.0-0.37"},{"rt":1256,"stimulus":"images/Broccoli/With_Backgrounds/difficulty1_image3.png","response":1,"category":"Broccoli","background_difficulty":"1","image_path":"images/Broccoli/With_Backgrounds/difficulty1_image3.png","trial_type":"image-button-response","trial_index":40,"time_elapsed":74553,"internal_node_id":"0.0-2.0-0.38"},{"rt":1278,"stimulus":"images/Dog/With_Backgrounds/difficulty6_image3.png","response":4,"category":"Dog","background_difficulty":"6","image_path":"images/Dog/With_Backgrounds/difficulty6_image3.png","trial_type":"image-button-response","trial_index":41,"time_elapsed":75845,"internal_node_id":"0.0-2.0-0.39"},{"rt":1167,"stimulus":"images/Broccoli/With_Backgrounds/difficulty2_image4.png","response":1,"category":"Broccoli","background_difficulty":"2","image_path":"images/Broccoli/With_Backgrounds/difficulty2_image4.png","trial_type":"image-button-response","trial_index":42,"time_elapsed":77027,"internal_node_id":"0.0-2.0-0.40"},{"rt":1225,"stimulus":"images/Car/With_Backgrounds/difficulty6_image4.png","response":2,"category":"Car","background_difficulty":"6","image_path":"images/Car/With_Backgrounds/difficulty6_image4.png","trial_type":"image-button-response","trial_index":43,"time_elapsed":78267,"internal_node_id":"0.0-2.0-0.41"},{"rt":1235,"stimulus":"images/Dog/With_Backgrounds/difficulty0_image8.png","response":4,"category":"Dog","background_difficulty":"0","image_path":"images/Dog/With_Backgrounds/difficulty0_image8.png","trial_type":"image-button-response","trial_index":44,"time_elapsed":79513,"internal_node_id":"0.0-2.0-0.42"},{"rt":1195,"stimulus":"images/Dog/With_Backgrounds/difficulty1_image4.png","response":4,"category":"Dog","background_difficulty":"1","image_path":"images/Dog/With_Backgrounds/difficulty1_image4.png","trial_type":"image-button-response","trial_index":45,"time_elapsed":80719,"internal_node_id":"0.0-2.0-0.43"},{"rt":1205,"stimulus":"images/Dog/With_Backgrounds/difficulty4_image9.png","response":4,"category":"Dog","background_difficulty":"4","image_path":"images/Dog/With_Backgrounds/difficulty4_image9.png","trial_type":"image-button-response","trial_index":46,"time_elapsed":81939,"internal_node_id":"0.0-2.0-0.44"},{"rt":1301,"stimulus":"images/Broccoli/With_Backgrounds/difficulty4_image6.png","response":1,"category":"Broccoli","background_difficulty":"4","image_path":"images/Broccoli/With_Backgrounds/difficulty4_image6.png","trial_type":"image-button-response","trial_index":47,"time_elapsed":83256,"internal_node_id":"0.0-2.0-0.45"},{"rt":1097,"stimulus":"images/Broccoli/With_Backgrounds/difficulty7_image9.png","response":1,"category":"Broccoli","background_difficulty":"7","image_path":"images/Broccoli/With_Backgrounds/difficulty7_image9.png","trial_type":"image-button-response","trial_index":48,"time_elapsed":84368,"internal_node_id":"0.0-2.0-0.46"},{"rt":1585,"stimulus":"images/Car/With_Backgrounds/difficulty1_image5.png","response":2,"category":"Car","background_difficulty":"1","image_path":"images/Car/With_Backgrounds/difficulty1_image5.png","trial_type":"image-button-response","trial_index":49,"time_elapsed":85968,"internal_node_id":"0.0-2.0-0.47"},{"rt":1223,"stimulus":"images/Human/With_Backgrounds/difficulty7_image9.png","response":5,"category":"Human","background_difficulty":"7","image_path":"images/Human/With_Backgrounds/difficulty7_image9.png","trial_type":"image-button-response","trial_index":50,"time_elapsed":87217,"internal_node_id":"0.0-2.0-0.48"},{"rt":1404,"stimulus":"images/Other/With_Backgrounds/difficulty4_image8.png","response":7,"category":"Other","background_difficulty":"4","image_path":"images/Other/With_Backgrounds/difficulty4_image8.png","trial_type":"image-button-response","trial_index":51,"time_elapsed":88636,"internal_node_id":"0.0-2.0-0.49"},{"rt":1327,"stimulus":"images/Other/With_Backgrounds/difficulty2_image3.png","response":7,"category":"Other","background_difficulty":"2","image_path":"images/Other/With_Backgrounds/difficulty2_image3.png","trial_type":"image-button-response","trial_index":52,"time_elapsed":89977,"internal_node_id":"0.0-2.0-0.50"},{"rt":1322,"stimulus":"images/Tree/With_Backgrounds/difficulty6_image5.png","response":6,"category":"Tree","background_difficulty":"6","image_path":"images/Tree/With_Backgrounds/difficulty6_image5.png","trial_type":"image-button-response","trial_index":53,"time_elapsed":91314,"internal_node_id":"0.0-2.0-0.51"},{"rt":1369,"stimulus":"images/Cat/With_Backgrounds/difficulty7_image6.png","response":3,"category":"Cat","background_difficulty":"7","image_path":"images/Cat/With_Backgrounds/difficulty7_image6.png","trial_type":"image-button-response","trial_index":54,"time_elapsed":92697,"internal_node_id":"0.0-2.0-0.52"},{"rt":1189,"stimulus":"images/Cat/With_Backgrounds/difficulty2_image4.png","response":3,"category":"Cat","background_difficulty":"2","image_path":"images/Cat/With_Backgrounds/difficulty2_image4.png","trial_type":"image-button-response","trial_index":55,"time_elapsed":93901,"internal_node_id":"0.0-2.0-0.53"},{"rt":1261,"stimulus":"images/Boat/With_Backgrounds/difficulty6_image5.png","response":0,"category":"Boat","background_difficulty":"6","image_path":"images/Boat/With_Backgrounds/difficulty6_image5.png","trial_type":"image-button-response","trial_index":56,"time_elapsed":95176,"internal_node_id":"0.0-2.0-0.54"},{"rt":1253,"stimulus":"images/Human/With_Backgrounds/difficulty6_image4.png","response":5,"category":"Human","background_difficulty":"6","image_path":"images/Human/With_Backgrounds/difficulty6_image4.png","trial_type":"image-button-response","trial_index":57,"time_elapsed":96445,"internal_node_id":"0.0-2.0-0.55"},{"rt":1316,"stimulus":"images/Tree/With_Backgrounds/difficulty5_image3.png","response":6,"category":"Tree","background_difficulty":"5","image_path":"images/Tree/With_Backgrounds/difficulty5_image3.png","trial_type":"image-button-response","trial_index":58,"time_elapsed":97776,"internal_node_id":"0.0-2.0-0.56"},{"rt":1395,"stimulus":"images/Human/With_Backgrounds/difficulty3_image7.png","response":5,"category":"Human","background_difficulty":"3","image_path":"images/Human/With_Backgrounds/difficulty3_image7.png","trial_type":"image-button-response","trial_index":59,"time_elapsed":99187,"internal_node_id":"0.0-2.0-0.57"},{"rt":1326,"stimulus":"images/Human/With_Backgrounds/difficulty1_image3.png","response":5,"category":"Human","background_difficulty":"1","image_path":"images/Human/With_Backgrounds/difficulty1_image3.png","trial_type":"image-button-response","trial_index":60,"time_elapsed":100527,"internal_node_id":"0.0-2.0-0.58"},{"rt":1200,"stimulus":"images/Tree/With_Backgrounds/difficulty0_image0.png","response":6,"category":"Tree","background_difficulty":"0","image_path":"images/Tree/With_Backgrounds/difficulty0_image0.png","trial_type":"image-button-response","trial_index":61,"time_elapsed":101741,"internal_node_id":"0.0-2.0-0.59"},{"rt":1427,"stimulus":"images/Car/With_Backgrounds/difficulty7_image7.png","response":2,"category":"Car","background_difficulty":"7","image_path":"images/Car/With_Backgrounds/difficulty7_image7.png","trial_type":"image-button-response","trial_index":62,"time_elapsed":103181,"internal_node_id":"0.0-2.0-0.60"},{"rt":1188,"stimulus":"images/Dog/With_Backgrounds/difficulty3_image6.png","response":4,"category":"Dog","background_difficulty":"3","image_path":"images/Dog/With_Backgrounds/difficulty3_image6.png","trial_type":"image-button-response","trial_index":63,"time_elapsed":104383,"internal_node_id":"0.0-2.0-0.61"},{"rt":1341,"stimulus":"images/Car/With_Backgrounds/difficulty3_image3.png","response":2,"category":"Car","background_difficulty":"3","image_path":"images/Car/With_Backgrounds/difficulty3_image3.png","trial_type":"image-button-response","trial_index":64,"time_elapsed":105737,"internal_node_id":"0.0-2.0-0.62"},{"rt":1167,"stimulus":"images/Human/With_Backgrounds/difficulty8_image0.png","response":5,"category":"Human","background_difficulty":"8","image_path":"images/Human/With_Backgrounds/difficulty8_image0.png","trial_type":"image-button-response","trial_index":65,"time_elapsed":106919,"internal_node_id":"0.0-2.0-0.63"},{"rt":1563,"stimulus":"images/Broccoli/With_Backgrounds/difficulty3_image0.png","response":1,"category":"Broccoli","background_difficulty":"3","image_path":"images/Broccoli/With_Backgrounds/difficulty3_image0.png","trial_type":"image-button-response","trial_index":66,"time_elapsed":108497,"internal_node_id":"0.0-2.0-0.64"},{"rt":1343,"stimulus":"images/Boat/With_Backgrounds/difficulty2_image7.png","response":0,"category":"Boat","background_difficulty":"2","image_path":"images/Boat/With_Backgrounds/difficulty2_image7.png","trial_type":"image-button-response","trial_index":67,"time_elapsed":109854,"internal_node_id":"0.0-2.0-0.65"},{"rt":1823,"stimulus":"images/Cat/With_Backgrounds/difficulty6_image1.png","response":3,"category":"Cat","background_difficulty":"6","image_path":"images/Cat/With_Backgrounds/difficulty6_image1.png","trial_type":"image-button-response","trial_index":68,"time_elapsed":111694,"internal_node_id":"0.0-2.0-0.66"},{"rt":1089,"stimulus":"images/Cat/With_Backgrounds/difficulty4_image0.png","response":3,"category":"Cat","background_difficulty":"4","image_path":"images/Cat/With_Backgrounds/difficulty4_image0.png","trial_type":"image-button-response","trial_index":69,"time_elapsed":112800,"internal_node_id":"0.0-2.0-0.67"},{"rt":1305,"stimulus":"images/Other/With_Backgrounds/difficulty3_image2.png","response":7,"category":"Other","background_difficulty":"3","image_path":"images/Other/With_Backgrounds/difficulty3_image2.png","trial_type":"image-button-response","trial_index":70,"time_elapsed":114120,"internal_node_id":"0.0-2.0-0.68"},{"rt":1219,"stimulus":"images/Boat/With_Backgrounds/difficulty1_image8.png","response":0,"category":"Boat","background_difficulty":"1","image_path":"images/Boat/With_Backgrounds/difficulty1_image8.png","trial_type":"image-button-response","trial_index":71,"time_elapsed":115353,"internal_node_id":"0.0-2.0-0.69"},{"rt":1401,"stimulus":"images/Car/With_Backgrounds/difficulty0_image6.png","response":3,"category":"Car","background_difficulty":"0","image_path":"images/Car/With_Backgrounds/difficulty0_image6.png","trial_type":"image-button-response","trial_index":72,"time_elapsed":116770,"internal_node_id":"0.0-2.0-0.70"},{"rt":1764,"stimulus":"images/Other/With_Backgrounds/difficulty7_image1.png","response":7,"category":"Other","background_difficulty":"7","image_path":"images/Other/With_Backgrounds/difficulty7_image1.png","trial_type":"image-button-response","trial_index":73,"time_elapsed":118551,"internal_node_id":"0.0-2.0-0.71"},{"rt":1516,"stimulus":["<h2>Press the button below to end experiment.</h2><p>Thank you for participating!</p>"],"response":0,"trial_type":"html-button-response","trial_index":74,"time_elapsed":120076,"internal_node_id":"0.0-3.0"}]