[{"success":true,"timeout":false,"failed_images":[],"failed_audio":[],"failed_video":[],"trial_type":"preload","trial_index":0,"time_elapsed":1096,"internal_node_id":"0.0-0.0"},{"rt":12458,"stimulus":["<h2>Noisy background image classification</h2><p>In this experiment you will briefly see images on top of colored squares of various sizes.</p><p>Your task is to report what each image is, selecting \"None of the Above\" if none of the given options are correct.</p> <p>The possible options are <strong>Boat</strong>, <strong>Broccoli</strong>, <strong>Car</strong>, <strong>Cat</strong>, <strong>Dog</strong>, <strong>Human</strong>, <strong>Tree</strong>, and <strong>None of the Above</strong>"],"response":0,"trial_type":"html-button-response","trial_index":1,"time_elapsed":13559,"internal_node_id":"0.0-1.0"},{"rt":6217,"stimulus":"images/Human/With_Backgrounds/difficulty1_image6.png","response":5,"category":"Human","background_difficulty":"1","image_path":"images/Human/With_Backgrounds/difficulty1_image6.png","trial_type":"image-button-response","trial_index":2,"time_elapsed":19803,"internal_node_id":"0.0-2.0-0.0"},{"rt":2436,"stimulus":"images/Cat/With_Backgrounds/difficulty0_image8.png","response":3,"category":"Cat","background_difficulty":"0","image_path":"images/Cat/With_Backgrounds/difficulty0_image8.png","trial_type":"image-button-response","trial_index":3,"time_elapsed":22253,"internal_node_id":"0.0-2.0-0.1"},{"rt":1552,"stimulus":"images/Dog/With_Backgrounds/difficulty0_image6.png","response":4,"category":"Dog","background_difficulty":"0","image_path":"images/Dog/With_Backgrounds/difficulty0_image6.png","trial_type":"image-button-response","trial_index":4,"time_elapsed":23820,"internal_node_id":"0.0-2.0-0.2"},{"rt":10288,"stimulus":"images/Boat/With_Backgrounds/difficulty1_image1.png","response":0,"category":"Boat","background_difficulty":"1","image_path":"images/Boat/With_Backgrounds/difficulty1_image1.png","trial_type":"image-button-response","trial_index":5,"time_elapsed":34121,"internal_node_id":"0.0-2.0-0.3"},{"rt":4401,"stimulus":"images/Other/With_Backgrounds/difficulty5_image8.png","response":7,"category":"Other","background_difficulty":"5","image_path":"images/Other/With_Backgrounds/difficulty5_image8.png","trial_type":"image-button-response","trial_index":6,"time_elapsed":38536,"internal_node_id":"0.0-2.0-0.4"},{"rt":1985,"stimulus":"images/Broccoli/With_Backgrounds/difficulty6_image7.png","response":1,"category":"Broccoli","background_difficulty":"6","image_path":"images/Broccoli/With_Backgrounds/difficulty6_image7.png","trial_type":"image-button-response","trial_index":7,"time_elapsed":40537,"internal_node_id":"0.0-2.0-0.5"},{"rt":2053,"stimulus":"images/Cat/With_Backgrounds/difficulty5_image6.png","response":3,"category":"Cat","background_difficulty":"5","image_path":"images/Cat/With_Backgrounds/difficulty5_image6.png","trial_type":"image-button-response","trial_index":8,"time_elapsed":42606,"internal_node_id":"0.0-2.0-0.6"},{"rt":1618,"stimulus":"images/Dog/With_Backgrounds/difficulty3_image2.png","response":4,"category":"Dog","background_difficulty":"3","image_path":"images/Dog/With_Backgrounds/difficulty3_image2.png","trial_type":"image-button-response","trial_index":9,"time_elapsed":44240,"internal_node_id":"0.0-2.0-0.7"},{"rt":1549,"stimulus":"images/Cat/With_Backgrounds/difficulty2_image1.png","response":3,"category":"Cat","background_difficulty":"2","image_path":"images/Cat/With_Backgrounds/difficulty2_image1.png","trial_type":"image-button-response","trial_index":10,"time_elapsed":45806,"internal_node_id":"0.0-2.0-0.8"},{"rt":2403,"stimulus":"images/Tree/With_Backgrounds/difficulty2_image4.png","response":6,"category":"Tree","background_difficulty":"2","image_path":"images/Tree/With_Backgrounds/difficulty2_image4.png","trial_type":"image-button-response","trial_index":11,"time_elapsed":48220,"internal_node_id":"0.0-2.0-0.9"},{"rt":1781,"stimulus":"images/Broccoli/With_Backgrounds/difficulty2_image2.png","response":1,"category":"Broccoli","background_difficulty":"2","image_path":"images/Broccoli/With_Backgrounds/difficulty2_image2.png","trial_type":"image-button-response","trial_index":12,"time_elapsed":50020,"internal_node_id":"0.0-2.0-0.10"},{"rt":1833,"stimulus":"images/Dog/With_Backgrounds/difficulty6_image1.png","response":4,"category":"Dog","background_difficulty":"6","image_path":"images/Dog/With_Backgrounds/difficulty6_image1.png","trial_type":"image-button-response","trial_index":13,"time_elapsed":51870,"internal_node_id":"0.0-2.0-0.11"},{"rt":2240,"stimulus":"images/Car/With_Backgrounds/difficulty0_image7.png","response":2,"category":"Car","background_difficulty":"0","image_path":"images/Car/With_Backgrounds/difficulty0_image7.png","trial_type":"image-button-response","trial_index":14,"time_elapsed":54125,"internal_node_id":"0.0-2.0-0.12"},{"rt":2596,"stimulus":"images/Broccoli/With_Backgrounds/difficulty3_image5.png","response":1,"category":"Broccoli","background_difficulty":"3","image_path":"images/Broccoli/With_Backgrounds/difficulty3_image5.png","trial_type":"image-button-response","trial_index":15,"time_elapsed":56738,"internal_node_id":"0.0-2.0-0.13"},{"rt":2019,"stimulus":"images/Tree/With_Backgrounds/difficulty0_image9.png","response":6,"category":"Tree","background_difficulty":"0","image_path":"images/Tree/With_Backgrounds/difficulty0_image9.png","trial_type":"image-button-response","trial_index":16,"time_elapsed":58771,"internal_node_id":"0.0-2.0-0.14"},{"rt":1753,"stimulus":"images/Human/With_Backgrounds/difficulty2_image2.png","response":5,"category":"Human","background_difficulty":"2","image_path":"images/Human/With_Backgrounds/difficulty2_image2.png","trial_type":"image-button-response","trial_index":17,"time_elapsed":60539,"internal_node_id":"0.0-2.0-0.15"},{"rt":1886,"stimulus":"images/Car/With_Backgrounds/difficulty2_image3.png","response":2,"category":"Car","background_difficulty":"2","image_path":"images/Car/With_Backgrounds/difficulty2_image3.png","trial_type":"image-button-response","trial_index":18,"time_elapsed":62439,"internal_node_id":"0.0-2.0-0.16"},{"rt":2537,"stimulus":"images/Boat/With_Backgrounds/difficulty4_image4.png","response":0,"category":"Boat","background_difficulty":"4","image_path":"images/Boat/With_Backgrounds/difficulty4_image4.png","trial_type":"image-button-response","trial_index":19,"time_elapsed":64989,"internal_node_id":"0.0-2.0-0.17"},{"rt":1521,"stimulus":"images/Boat/With_Backgrounds/difficulty5_image2.png","response":0,"category":"Boat","background_difficulty":"5","image_path":"images/Boat/With_Backgrounds/difficulty5_image2.png","trial_type":"image-button-response","trial_index":20,"time_elapsed":66522,"internal_node_id":"0.0-2.0-0.18"},{"rt":1550,"stimulus":"images/Broccoli/With_Backgrounds/difficulty7_image6.png","response":1,"category":"Broccoli","background_difficulty":"7","image_path":"images/Broccoli/With_Backgrounds/difficulty7_image6.png","trial_type":"image-button-response","trial_index":21,"time_elapsed":68090,"internal_node_id":"0.0-2.0-0.19"},{"rt":1315,"stimulus":"images/Broccoli/With_Backgrounds/difficulty1_image1.png","response":1,"category":"Broccoli","background_difficulty":"1","image_path":"images/Broccoli/With_Backgrounds/difficulty1_image1.png","trial_type":"image-button-response","trial_index":22,"time_elapsed":69421,"internal_node_id":"0.0-2.0-0.20"},{"rt":2201,"stimulus":"images/Cat/With_Backgrounds/difficulty4_image2.png","response":3,"category":"Cat","background_difficulty":"4","image_path":"images/Cat/With_Backgrounds/difficulty4_image2.png","trial_type":"image-button-response","trial_index":23,"time_elapsed":71638,"internal_node_id":"0.0-2.0-0.21"},{"rt":1536,"stimulus":"images/Car/With_Backgrounds/difficulty3_image1.png","response":2,"category":"Car","background_difficulty":"3","image_path":"images/Car/With_Backgrounds/difficulty3_image1.png","trial_type":"image-button-response","trial_index":24,"time_elapsed":73189,"internal_node_id":"0.0-2.0-0.22"},{"rt":1686,"stimulus":"images/Car/With_Backgrounds/difficulty5_image6.png","response":2,"category":"Car","background_difficulty":"5","image_path":"images/Car/With_Backgrounds/difficulty5_image6.png","trial_type":"image-button-response","trial_index":25,"time_elapsed":74889,"internal_node_id":"0.0-2.0-0.23"},{"rt":1682,"stimulus":"images/Broccoli/With_Backgrounds/difficulty8_image3.png","response":1,"category":"Broccoli","background_difficulty":"8","image_path":"images/Broccoli/With_Backgrounds/difficulty8_image3.png","trial_type":"image-button-response","trial_index":26,"time_elapsed":76590,"internal_node_id":"0.0-2.0-0.24"},{"rt":1830,"stimulus":"images/Car/With_Backgrounds/difficulty8_image2.png","response":2,"category":"Car","background_difficulty":"8","image_path":"images/Car/With_Backgrounds/difficulty8_image2.png","trial_type":"image-button-response","trial_index":27,"time_elapsed":78437,"internal_node_id":"0.0-2.0-0.25"},{"rt":1388,"stimulus":"images/Broccoli/With_Backgrounds/difficulty4_image8.png","response":1,"category":"Broccoli","background_difficulty":"4","image_path":"images/Broccoli/With_Backgrounds/difficulty4_image8.png","trial_type":"image-button-response","trial_index":28,"time_elapsed":79840,"internal_node_id":"0.0-2.0-0.26"},{"rt":2318,"stimulus":"images/Tree/With_Backgrounds/difficulty6_image3.png","response":6,"category":"Tree","background_difficulty":"6","image_path":"images/Tree/With_Backgrounds/difficulty6_image3.png","trial_type":"image-button-response","trial_index":29,"time_elapsed":82172,"internal_node_id":"0.0-2.0-0.27"},{"rt":1614,"stimulus":"images/Cat/With_Backgrounds/difficulty8_image7.png","response":3,"category":"Cat","background_difficulty":"8","image_path":"images/Cat/With_Backgrounds/difficulty8_image7.png","trial_type":"image-button-response","trial_index":30,"time_elapsed":83805,"internal_node_id":"0.0-2.0-0.28"},{"rt":1853,"stimulus":"images/Tree/With_Backgrounds/difficulty1_image0.png","response":6,"category":"Tree","background_difficulty":"1","image_path":"images/Tree/With_Backgrounds/difficulty1_image0.png","trial_type":"image-button-response","trial_index":31,"time_elapsed":85674,"internal_node_id":"0.0-2.0-0.29"},{"rt":2951,"stimulus":"images/Boat/With_Backgrounds/difficulty0_image9.png","response":0,"category":"Boat","background_difficulty":"0","image_path":"images/Boat/With_Backgrounds/difficulty0_image9.png","trial_type":"image-button-response","trial_index":32,"time_elapsed":88639,"internal_node_id":"0.0-2.0-0.30"},{"rt":1537,"stimulus":"images/Broccoli/With_Backgrounds/difficulty0_image9.png","response":1,"category":"Broccoli","background_difficulty":"0","image_path":"images/Broccoli/With_Backgrounds/difficulty0_image9.png","trial_type":"image-button-response","trial_index":33,"time_elapsed":90193,"internal_node_id":"0.0-2.0-0.31"},{"rt":3118,"stimulus":"images/Other/With_Backgrounds/difficulty2_image9.png","response":7,"category":"Other","background_difficulty":"2","image_path":"images/Other/With_Backgrounds/difficulty2_image9.png","trial_type":"image-button-response","trial_index":34,"time_elapsed":93324,"internal_node_id":"0.0-2.0-0.32"},{"rt":2671,"stimulus":"images/Cat/With_Backgrounds/difficulty1_image3.png","response":3,"category":"Cat","background_difficulty":"1","image_path":"images/Cat/With_Backgrounds/difficulty1_image3.png","trial_type":"image-button-response","trial_index":35,"time_elapsed":96010,"internal_node_id":"0.0-2.0-0.33"},{"rt":1631,"stimulus":"images/Dog/With_Backgrounds/difficulty5_image3.png","response":4,"category":"Dog","background_difficulty":"5","image_path":"images/Dog/With_Backgrounds/difficulty5_image3.png","trial_type":"image-button-response","trial_index":36,"time_elapsed":97658,"internal_node_id":"0.0-2.0-0.34"},{"rt":1315,"stimulus":"images/Dog/With_Backgrounds/difficulty1_image5.png","response":4,"category":"Dog","background_difficulty":"1","image_path":"images/Dog/With_Backgrounds/difficulty1_image5.png","trial_type":"image-button-response","trial_index":37,"time_elapsed":98989,"internal_node_id":"0.0-2.0-0.35"},{"rt":1734,"stimulus":"images/Human/With_Backgrounds/difficulty0_image4.png","response":5,"category":"Human","background_difficulty":"0","image_path":"images/Human/With_Backgrounds/difficulty0_image4.png","trial_type":"image-button-response","trial_index":38,"time_elapsed":100740,"internal_node_id":"0.0-2.0-0.36"},{"rt":1766,"stimulus":"images/Dog/With_Backgrounds/difficulty7_image0.png","response":4,"category":"Dog","background_difficulty":"7","image_path":"images/Dog/With_Backgrounds/difficulty7_image0.png","trial_type":"image-button-response","trial_index":39,"time_elapsed":102523,"internal_node_id":"0.0-2.0-0.37"},{"rt":1851,"stimulus":"images/Human/With_Backgrounds/difficulty3_image9.png","response":5,"category":"Human","background_difficulty":"3","image_path":"images/Human/With_Backgrounds/difficulty3_image9.png","trial_type":"image-button-response","trial_index":40,"time_elapsed":104390,"internal_node_id":"0.0-2.0-0.38"},{"rt":1337,"stimulus":"images/Human/With_Backgrounds/difficulty4_image3.png","response":5,"category":"Human","background_difficulty":"4","image_path":"images/Human/With_Backgrounds/difficulty4_image3.png","trial_type":"image-button-response","trial_index":41,"time_elapsed":105742,"internal_node_id":"0.0-2.0-0.39"},{"rt":3553,"stimulus":"images/Car/With_Backgrounds/difficulty6_image8.png","response":2,"category":"Car","background_difficulty":"6","image_path":"images/Car/With_Backgrounds/difficulty6_image8.png","trial_type":"image-button-response","trial_index":42,"time_elapsed":109310,"internal_node_id":"0.0-2.0-0.40"},{"rt":1539,"stimulus":"images/Human/With_Backgrounds/difficulty8_image5.png","response":5,"category":"Human","background_difficulty":"8","image_path":"images/Human/With_Backgrounds/difficulty8_image5.png","trial_type":"image-button-response","trial_index":43,"time_elapsed":110858,"internal_node_id":"0.0-2.0-0.41"},{"rt":2505,"stimulus":"images/Boat/With_Backgrounds/difficulty2_image0.png","response":0,"category":"Boat","background_difficulty":"2","image_path":"images/Boat/With_Backgrounds/difficulty2_image0.png","trial_type":"image-button-response","trial_index":44,"time_elapsed":113376,"internal_node_id":"0.0-2.0-0.42"},{"rt":1879,"stimulus":"images/Human/With_Backgrounds/difficulty5_image0.png","response":5,"category":"Human","background_difficulty":"5","image_path":"images/Human/With_Backgrounds/difficulty5_image0.png","trial_type":"image-button-response","trial_index":45,"time_elapsed":115272,"internal_node_id":"0.0-2.0-0.43"},{"rt":2508,"stimulus":"images/Tree/With_Backgrounds/difficulty5_image5.png","response":6,"category":"Tree","background_difficulty":"5","image_path":"images/Tree/With_Backgrounds/difficulty5_image5.png","trial_type":"image-button-response","trial_index":46,"time_elapsed":117792,"internal_node_id":"0.0-2.0-0.44"},{"rt":1918,"stimulus":"images/Dog/With_Backgrounds/difficulty2_image9.png","response":4,"category":"Dog","background_difficulty":"2","image_path":"images/Dog/With_Backgrounds/difficulty2_image9.png","trial_type":"image-button-response","trial_index":47,"time_elapsed":119726,"internal_node_id":"0.0-2.0-0.45"},{"rt":2120,"stimulus":"images/Boat/With_Backgrounds/difficulty7_image5.png","response":0,"category":"Boat","background_difficulty":"7","image_path":"images/Boat/With_Backgrounds/difficulty7_image5.png","trial_type":"image-button-response","trial_index":48,"time_elapsed":121861,"internal_node_id":"0.0-2.0-0.46"},{"rt":2449,"stimulus":"images/Other/With_Backgrounds/difficulty0_image0.png","response":7,"category":"Other","background_difficulty":"0","image_path":"images/Other/With_Backgrounds/difficulty0_image0.png","trial_type":"image-button-response","trial_index":49,"time_elapsed":124323,"internal_node_id":"0.0-2.0-0.47"},{"rt":1872,"stimulus":"images/Car/With_Backgrounds/difficulty1_image9.png","response":2,"category":"Car","background_difficulty":"1","image_path":"images/Car/With_Backgrounds/difficulty1_image9.png","trial_type":"image-button-response","trial_index":50,"time_elapsed":126208,"internal_node_id":"0.0-2.0-0.48"},{"rt":1936,"stimulus":"images/Tree/With_Backgrounds/difficulty7_image7.png","response":6,"category":"Tree","background_difficulty":"7","image_path":"images/Tree/With_Backgrounds/difficulty7_image7.png","trial_type":"image-button-response","trial_index":51,"time_elapsed":128159,"internal_node_id":"0.0-2.0-0.49"},{"rt":3131,"stimulus":"images/Boat/With_Backgrounds/difficulty8_image7.png","response":0,"category":"Boat","background_difficulty":"8","image_path":"images/Boat/With_Backgrounds/difficulty8_image7.png","trial_type":"image-button-response","trial_index":52,"time_elapsed":131307,"internal_node_id":"0.0-2.0-0.50"},{"rt":1532,"stimulus":"images/Human/With_Backgrounds/difficulty6_image8.png","response":5,"category":"Human","background_difficulty":"6","image_path":"images/Human/With_Backgrounds/difficulty6_image8.png","trial_type":"image-button-response","trial_index":53,"time_elapsed":132856,"internal_node_id":"0.0-2.0-0.51"},{"rt":1524,"stimulus":"images/Car/With_Backgrounds/difficulty4_image0.png","response":2,"category":"Car","background_difficulty":"4","image_path":"images/Car/With_Backgrounds/difficulty4_image0.png","trial_type":"image-button-response","trial_index":54,"time_elapsed":134394,"internal_node_id":"0.0-2.0-0.52"},{"rt":2618,"stimulus":"images/Cat/With_Backgrounds/difficulty7_image4.png","response":3,"category":"Cat","background_difficulty":"7","image_path":"images/Cat/With_Backgrounds/difficulty7_image4.png","trial_type":"image-button-response","trial_index":55,"time_elapsed":137026,"internal_node_id":"0.0-2.0-0.53"},{"rt":2427,"stimulus":"images/Other/With_Backgrounds/difficulty7_image2.png","response":7,"category":"Other","background_difficulty":"7","image_path":"images/Other/With_Backgrounds/difficulty7_image2.png","trial_type":"image-button-response","trial_index":56,"time_elapsed":139459,"internal_node_id":"0.0-2.0-0.54"},{"rt":1417,"stimulus":"images/Other/With_Backgrounds/difficulty6_image3.png","response":7,"category":"Other","background_difficulty":"6","image_path":"images/Other/With_Backgrounds/difficulty6_image3.png","trial_type":"image-button-response","trial_index":57,"time_elapsed":140891,"internal_node_id":"0.0-2.0-0.55"},{"rt":4019,"stimulus":"images/Other/With_Backgrounds/difficulty3_image5.png","response":7,"category":"Other","background_difficulty":"3","image_path":"images/Other/With_Backgrounds/difficulty3_image5.png","trial_type":"image-button-response","trial_index":58,"time_elapsed":144926,"internal_node_id":"0.0-2.0-0.56"},{"rt":1904,"stimulus":"images/Dog/With_Backgrounds/difficulty4_image4.png","response":4,"category":"Dog","background_difficulty":"4","image_path":"images/Dog/With_Backgrounds/difficulty4_image4.png","trial_type":"image-button-response","trial_index":59,"time_elapsed":146841,"internal_node_id":"0.0-2.0-0.57"},{"rt":1591,"stimulus":"images/Other/With_Backgrounds/difficulty1_image7.png","response":7,"category":"Other","background_difficulty":"1","image_path":"images/Other/With_Backgrounds/difficulty1_image7.png","trial_type":"image-button-response","trial_index":60,"time_elapsed":148443,"internal_node_id":"0.0-2.0-0.58"},{"rt":1837,"stimulus":"images/Tree/With_Backgrounds/difficulty3_image1.png","response":6,"category":"Tree","background_difficulty":"3","image_path":"images/Tree/With_Backgrounds/difficulty3_image1.png","trial_type":"image-button-response","trial_index":61,"time_elapsed":150293,"internal_node_id":"0.0-2.0-0.59"},{"rt":1486,"stimulus":"images/Tree/With_Backgrounds/difficulty4_image6.png","response":6,"category":"Tree","background_difficulty":"4","image_path":"images/Tree/With_Backgrounds/difficulty4_image6.png","trial_type":"image-button-response","trial_index":62,"time_elapsed":151794,"internal_node_id":"0.0-2.0-0.60"},{"rt":2600,"stimulus":"images/Other/With_Backgrounds/difficulty8_image1.png","response":7,"category":"Other","background_difficulty":"8","image_path":"images/Other/With_Backgrounds/difficulty8_image1.png","trial_type":"image-button-response","trial_index":63,"time_elapsed":154411,"internal_node_id":"0.0-2.0-0.61"},{"rt":2219,"stimulus":"images/Other/With_Backgrounds/difficulty4_image6.png","response":7,"category":"Other","background_difficulty":"4","image_path":"images/Other/With_Backgrounds/difficulty4_image6.png","trial_type":"image-button-response","trial_index":64,"time_elapsed":156644,"internal_node_id":"0.0-2.0-0.62"},{"rt":2053,"stimulus":"images/Boat/With_Backgrounds/difficulty6_image3.png","response":0,"category":"Boat","background_difficulty":"6","image_path":"images/Boat/With_Backgrounds/difficulty6_image3.png","trial_type":"image-button-response","trial_index":65,"time_elapsed":158712,"internal_node_id":"0.0-2.0-0.63"},{"rt":2044,"stimulus":"images/Car/With_Backgrounds/difficulty7_image5.png","response":1,"category":"Car","background_difficulty":"7","image_path":"images/Car/With_Backgrounds/difficulty7_image5.png","trial_type":"image-button-response","trial_index":66,"time_elapsed":160773,"internal_node_id":"0.0-2.0-0.64"},{"rt":1616,"stimulus":"images/Cat/With_Backgrounds/difficulty3_image0.png","response":3,"category":"Cat","background_difficulty":"3","image_path":"images/Cat/With_Backgrounds/difficulty3_image0.png","trial_type":"image-button-response","trial_index":67,"time_elapsed":162398,"internal_node_id":"0.0-2.0-0.65"},{"rt":1516,"stimulus":"images/Cat/With_Backgrounds/difficulty6_image9.png","response":3,"category":"Cat","background_difficulty":"6","image_path":"images/Cat/With_Backgrounds/difficulty6_image9.png","trial_type":"image-button-response","trial_index":68,"time_elapsed":163928,"internal_node_id":"0.0-2.0-0.66"},{"rt":3397,"stimulus":"images/Tree/With_Backgrounds/difficulty8_image8.png","response":6,"category":"Tree","background_difficulty":"8","image_path":"images/Tree/With_Backgrounds/difficulty8_image8.png","trial_type":"image-button-response","trial_index":69,"time_elapsed":167342,"internal_node_id":"0.0-2.0-0.67"},{"rt":1923,"stimulus":"images/Boat/With_Backgrounds/difficulty3_image6.png","response":0,"category":"Boat","background_difficulty":"3","image_path":"images/Boat/With_Backgrounds/difficulty3_image6.png","trial_type":"image-button-response","trial_index":70,"time_elapsed":169277,"internal_node_id":"0.0-2.0-0.68"},{"rt":1685,"stimulus":"images/Dog/With_Backgrounds/difficulty8_image8.png","response":4,"category":"Dog","background_difficulty":"8","image_path":"images/Dog/With_Backgrounds/difficulty8_image8.png","trial_type":"image-button-response","trial_index":71,"time_elapsed":170978,"internal_node_id":"0.0-2.0-0.69"},{"rt":1609,"stimulus":"images/Human/With_Backgrounds/difficulty7_image7.png","response":5,"category":"Human","background_difficulty":"7","image_path":"images/Human/With_Backgrounds/difficulty7_image7.png","trial_type":"image-button-response","trial_index":72,"time_elapsed":172612,"internal_node_id":"0.0-2.0-0.70"},{"rt":1666,"stimulus":"images/Broccoli/With_Backgrounds/difficulty5_image4.png","response":1,"category":"Broccoli","background_difficulty":"5","image_path":"images/Broccoli/With_Backgrounds/difficulty5_image4.png","trial_type":"image-button-response","trial_index":73,"time_elapsed":174296,"internal_node_id":"0.0-2.0-0.71"},{"rt":1845,"stimulus":["<h2>Press the button below to end experiment.</h2><p>Thank you for participating!</p>"],"response":0,"trial_type":"html-button-response","trial_index":74,"time_elapsed":176144,"internal_node_id":"0.0-3.0"}]