[{"success":true,"timeout":false,"failed_images":[],"failed_audio":[],"failed_video":[],"trial_type":"preload","trial_index":0,"time_elapsed":775,"internal_node_id":"0.0-0.0"},{"rt":6026,"stimulus":["<h2>Noisy background image classification</h2><p>In this experiment you will briefly see images on top of colored squares of various sizes.</p><p>Your task is to report what each image is, selecting \"None of the Above\" if none of the given options are correct.</p> <p>The possible options are <strong>Boat</strong>, <strong>Broccoli</strong>, <strong>Car</strong>, <strong>Cat</strong>, <strong>Dog</strong>, <strong>Human</strong>, <strong>Tree</strong>, and <strong>None of the Above</strong>"],"response":0,"trial_type":"html-button-response","trial_index":1,"time_elapsed":6803,"internal_node_id":"0.0-1.0"},{"rt":1498,"stimulus":"images/Tree/With_Backgrounds/difficulty8_image7.png","response":6,"category":"Tree","background_difficulty":"8","image_path":"images/Tree/With_Backgrounds/difficulty8_image7.png","trial_type":"image-button-response","trial_index":2,"time_elapsed":8307,"internal_node_id":"0.0-2.0-0.0"},{"rt":3473,"stimulus":"images/Other/With_Backgrounds/difficulty7_image5.png","response":7,"category":"Other","background_difficulty":"7","image_path":"images/Other/With_Backgrounds/difficulty7_image5.png","trial_type":"image-button-response","trial_index":3,"time_elapsed":11785,"internal_node_id":"0.0-2.0-0.1"},{"rt":1514,"stimulus":"images/Car/With_Backgrounds/difficulty1_image3.png","response":2,"category":"Car","background_difficulty":"1","image_path":"images/Car/With_Backgrounds/difficulty1_image3.png","trial_type":"image-button-response","trial_index":4,"time_elapsed":13301,"internal_node_id":"0.0-2.0-0.2"},{"rt":1172,"stimulus":"images/Cat/With_Backgrounds/difficulty7_image8.png","response":3,"category":"Cat","background_difficulty":"7","image_path":"images/Cat/With_Backgrounds/difficulty7_image8.png","trial_type":"image-button-response","trial_index":5,"time_elapsed":14478,"internal_node_id":"0.0-2.0-0.3"},{"rt":1354,"stimulus":"images/Broccoli/With_Backgrounds/difficulty0_image3.png","response":1,"category":"Broccoli","background_difficulty":"0","image_path":"images/Broccoli/With_Backgrounds/difficulty0_image3.png","trial_type":"image-button-response","trial_index":6,"time_elapsed":15837,"internal_node_id":"0.0-2.0-0.4"},{"rt":2428,"stimulus":"images/Boat/With_Backgrounds/difficulty7_image9.png","response":0,"category":"Boat","background_difficulty":"7","image_path":"images/Boat/With_Backgrounds/difficulty7_image9.png","trial_type":"image-button-response","trial_index":7,"time_elapsed":18270,"internal_node_id":"0.0-2.0-0.5"},{"rt":1504,"stimulus":"images/Cat/With_Backgrounds/difficulty5_image9.png","response":3,"category":"Cat","background_difficulty":"5","image_path":"images/Cat/With_Backgrounds/difficulty5_image9.png","trial_type":"image-button-response","trial_index":8,"time_elapsed":19779,"internal_node_id":"0.0-2.0-0.6"},{"rt":1470,"stimulus":"images/Tree/With_Backgrounds/difficulty2_image8.png","response":6,"category":"Tree","background_difficulty":"2","image_path":"images/Tree/With_Backgrounds/difficulty2_image8.png","trial_type":"image-button-response","trial_index":9,"time_elapsed":21255,"internal_node_id":"0.0-2.0-0.7"},{"rt":1368,"stimulus":"images/Cat/With_Backgrounds/difficulty0_image3.png","response":3,"category":"Cat","background_difficulty":"0","image_path":"images/Cat/With_Backgrounds/difficulty0_image3.png","trial_type":"image-button-response","trial_index":10,"time_elapsed":22628,"internal_node_id":"0.0-2.0-0.8"},{"rt":966,"stimulus":"images/Cat/With_Backgrounds/difficulty2_image4.png","response":3,"category":"Cat","background_difficulty":"2","image_path":"images/Cat/With_Backgrounds/difficulty2_image4.png","trial_type":"image-button-response","trial_index":11,"time_elapsed":23604,"internal_node_id":"0.0-2.0-0.9"},{"rt":1743,"stimulus":"images/Car/With_Backgrounds/difficulty8_image7.png","response":2,"category":"Car","background_difficulty":"8","image_path":"images/Car/With_Backgrounds/difficulty8_image7.png","trial_type":"image-button-response","trial_index":12,"time_elapsed":25353,"internal_node_id":"0.0-2.0-0.10"},{"rt":1395,"stimulus":"images/Tree/With_Backgrounds/difficulty6_image5.png","response":6,"category":"Tree","background_difficulty":"6","image_path":"images/Tree/With_Backgrounds/difficulty6_image5.png","trial_type":"image-button-response","trial_index":13,"time_elapsed":26753,"internal_node_id":"0.0-2.0-0.11"},{"rt":1733,"stimulus":"images/Car/With_Backgrounds/difficulty2_image0.png","response":2,"category":"Car","background_difficulty":"2","image_path":"images/Car/With_Backgrounds/difficulty2_image0.png","trial_type":"image-button-response","trial_index":14,"time_elapsed":28490,"internal_node_id":"0.0-2.0-0.12"},{"rt":1917,"stimulus":"images/Other/With_Backgrounds/difficulty8_image3.png","response":7,"category":"Other","background_difficulty":"8","image_path":"images/Other/With_Backgrounds/difficulty8_image3.png","trial_type":"image-button-response","trial_index":15,"time_elapsed":30414,"internal_node_id":"0.0-2.0-0.13"},{"rt":1169,"stimulus":"images/Cat/With_Backgrounds/difficulty1_image6.png","response":3,"category":"Cat","background_difficulty":"1","image_path":"images/Cat/With_Backgrounds/difficulty1_image6.png","trial_type":"image-button-response","trial_index":16,"time_elapsed":31587,"internal_node_id":"0.0-2.0-0.14"},{"rt":1410,"stimulus":"images/Human/With_Backgrounds/difficulty4_image2.png","response":5,"category":"Human","background_difficulty":"4","image_path":"images/Human/With_Backgrounds/difficulty4_image2.png","trial_type":"image-button-response","trial_index":17,"time_elapsed":33003,"internal_node_id":"0.0-2.0-0.15"},{"rt":2180,"stimulus":"images/Boat/With_Backgrounds/difficulty4_image2.png","response":0,"category":"Boat","background_difficulty":"4","image_path":"images/Boat/With_Backgrounds/difficulty4_image2.png","trial_type":"image-button-response","trial_index":18,"time_elapsed":35187,"internal_node_id":"0.0-2.0-0.16"},{"rt":2193,"stimulus":"images/Other/With_Backgrounds/difficulty6_image4.png","response":7,"category":"Other","background_difficulty":"6","image_path":"images/Other/With_Backgrounds/difficulty6_image4.png","trial_type":"image-button-response","trial_index":19,"time_elapsed":37385,"internal_node_id":"0.0-2.0-0.17"},{"rt":1395,"stimulus":"images/Broccoli/With_Backgrounds/difficulty4_image5.png","response":1,"category":"Broccoli","background_difficulty":"4","image_path":"images/Broccoli/With_Backgrounds/difficulty4_image5.png","trial_type":"image-button-response","trial_index":20,"time_elapsed":38786,"internal_node_id":"0.0-2.0-0.18"},{"rt":1662,"stimulus":"images/Cat/With_Backgrounds/difficulty6_image2.png","response":3,"category":"Cat","background_difficulty":"6","image_path":"images/Cat/With_Backgrounds/difficulty6_image2.png","trial_type":"image-button-response","trial_index":21,"time_elapsed":40452,"internal_node_id":"0.0-2.0-0.19"},{"rt":1046,"stimulus":"images/Dog/With_Backgrounds/difficulty3_image6.png","response":4,"category":"Dog","background_difficulty":"3","image_path":"images/Dog/With_Backgrounds/difficulty3_image6.png","trial_type":"image-button-response","trial_index":22,"time_elapsed":41503,"internal_node_id":"0.0-2.0-0.20"},{"rt":796,"stimulus":"images/Dog/With_Backgrounds/difficulty6_image3.png","response":4,"category":"Dog","background_difficulty":"6","image_path":"images/Dog/With_Backgrounds/difficulty6_image3.png","trial_type":"image-button-response","trial_index":23,"time_elapsed":42303,"internal_node_id":"0.0-2.0-0.21"},{"rt":1496,"stimulus":"images/Broccoli/With_Backgrounds/difficulty8_image2.png","response":1,"category":"Broccoli","background_difficulty":"8","image_path":"images/Broccoli/With_Backgrounds/difficulty8_image2.png","trial_type":"image-button-response","trial_index":24,"time_elapsed":43806,"internal_node_id":"0.0-2.0-0.22"},{"rt":1392,"stimulus":"images/Car/With_Backgrounds/difficulty7_image8.png","response":2,"category":"Car","background_difficulty":"7","image_path":"images/Car/With_Backgrounds/difficulty7_image8.png","trial_type":"image-button-response","trial_index":25,"time_elapsed":45202,"internal_node_id":"0.0-2.0-0.23"},{"rt":1315,"stimulus":"images/Tree/With_Backgrounds/difficulty5_image6.png","response":6,"category":"Tree","background_difficulty":"5","image_path":"images/Tree/With_Backgrounds/difficulty5_image6.png","trial_type":"image-button-response","trial_index":26,"time_elapsed":46521,"internal_node_id":"0.0-2.0-0.24"},{"rt":6162,"stimulus":"images/Boat/With_Backgrounds/difficulty8_image8.png","response":0,"category":"Boat","background_difficulty":"8","image_path":"images/Boat/With_Backgrounds/difficulty8_image8.png","trial_type":"image-button-response","trial_index":27,"time_elapsed":52690,"internal_node_id":"0.0-2.0-0.25"},{"rt":1462,"stimulus":"images/Tree/With_Backgrounds/difficulty4_image1.png","response":6,"category":"Tree","background_difficulty":"4","image_path":"images/Tree/With_Backgrounds/difficulty4_image1.png","trial_type":"image-button-response","trial_index":28,"time_elapsed":54156,"internal_node_id":"0.0-2.0-0.26"},{"rt":1577,"stimulus":"images/Cat/With_Backgrounds/difficulty3_image1.png","response":3,"category":"Cat","background_difficulty":"3","image_path":"images/Cat/With_Backgrounds/difficulty3_image1.png","trial_type":"image-button-response","trial_index":29,"time_elapsed":55737,"internal_node_id":"0.0-2.0-0.27"},{"rt":1597,"stimulus":"images/Boat/With_Backgrounds/difficulty6_image1.png","response":0,"category":"Boat","background_difficulty":"6","image_path":"images/Boat/With_Backgrounds/difficulty6_image1.png","trial_type":"image-button-response","trial_index":30,"time_elapsed":57339,"internal_node_id":"0.0-2.0-0.28"},{"rt":1444,"stimulus":"images/Tree/With_Backgrounds/difficulty1_image3.png","response":6,"category":"Tree","background_difficulty":"1","image_path":"images/Tree/With_Backgrounds/difficulty1_image3.png","trial_type":"image-button-response","trial_index":31,"time_elapsed":58788,"internal_node_id":"0.0-2.0-0.29"},{"rt":1229,"stimulus":"images/Broccoli/With_Backgrounds/difficulty6_image4.png","response":1,"category":"Broccoli","background_difficulty":"6","image_path":"images/Broccoli/With_Backgrounds/difficulty6_image4.png","trial_type":"image-button-response","trial_index":32,"time_elapsed":60023,"internal_node_id":"0.0-2.0-0.30"},{"rt":1496,"stimulus":"images/Tree/With_Backgrounds/difficulty7_image4.png","response":6,"category":"Tree","background_difficulty":"7","image_path":"images/Tree/With_Backgrounds/difficulty7_image4.png","trial_type":"image-button-response","trial_index":33,"time_elapsed":61525,"internal_node_id":"0.0-2.0-0.31"},{"rt":1374,"stimulus":"images/Human/With_Backgrounds/difficulty1_image5.png","response":5,"category":"Human","background_difficulty":"1","image_path":"images/Human/With_Backgrounds/difficulty1_image5.png","trial_type":"image-button-response","trial_index":34,"time_elapsed":62905,"internal_node_id":"0.0-2.0-0.32"},{"rt":1247,"stimulus":"images/Car/With_Backgrounds/difficulty4_image4.png","response":2,"category":"Car","background_difficulty":"4","image_path":"images/Car/With_Backgrounds/difficulty4_image4.png","trial_type":"image-button-response","trial_index":35,"time_elapsed":64156,"internal_node_id":"0.0-2.0-0.33"},{"rt":777,"stimulus":"images/Car/With_Backgrounds/difficulty6_image1.png","response":2,"category":"Car","background_difficulty":"6","image_path":"images/Car/With_Backgrounds/difficulty6_image1.png","trial_type":"image-button-response","trial_index":36,"time_elapsed":64937,"internal_node_id":"0.0-2.0-0.34"},{"rt":913,"stimulus":"images/Cat/With_Backgrounds/difficulty4_image5.png","response":3,"category":"Cat","background_difficulty":"4","image_path":"images/Cat/With_Backgrounds/difficulty4_image5.png","trial_type":"image-button-response","trial_index":37,"time_elapsed":65854,"internal_node_id":"0.0-2.0-0.35"},{"rt":1345,"stimulus":"images/Boat/With_Backgrounds/difficulty3_image5.png","response":0,"category":"Boat","background_difficulty":"3","image_path":"images/Boat/With_Backgrounds/difficulty3_image5.png","trial_type":"image-button-response","trial_index":38,"time_elapsed":67204,"internal_node_id":"0.0-2.0-0.36"},{"rt":1710,"stimulus":"images/Other/With_Backgrounds/difficulty2_image1.png","response":7,"category":"Other","background_difficulty":"2","image_path":"images/Other/With_Backgrounds/difficulty2_image1.png","trial_type":"image-button-response","trial_index":39,"time_elapsed":68920,"internal_node_id":"0.0-2.0-0.37"},{"rt":1113,"stimulus":"images/Dog/With_Backgrounds/difficulty2_image7.png","response":4,"category":"Dog","background_difficulty":"2","image_path":"images/Dog/With_Backgrounds/difficulty2_image7.png","trial_type":"image-button-response","trial_index":40,"time_elapsed":70036,"internal_node_id":"0.0-2.0-0.38"},{"rt":1557,"stimulus":"images/Cat/With_Backgrounds/difficulty8_image7.png","response":3,"category":"Cat","background_difficulty":"8","image_path":"images/Cat/With_Backgrounds/difficulty8_image7.png","trial_type":"image-button-response","trial_index":41,"time_elapsed":71598,"internal_node_id":"0.0-2.0-0.39"},{"rt":1133,"stimulus":"images/Broccoli/With_Backgrounds/difficulty1_image1.png","response":1,"category":"Broccoli","background_difficulty":"1","image_path":"images/Broccoli/With_Backgrounds/difficulty1_image1.png","trial_type":"image-button-response","trial_index":42,"time_elapsed":72737,"internal_node_id":"0.0-2.0-0.40"},{"rt":1479,"stimulus":"images/Other/With_Backgrounds/difficulty5_image7.png","response":7,"category":"Other","background_difficulty":"5","image_path":"images/Other/With_Backgrounds/difficulty5_image7.png","trial_type":"image-button-response","trial_index":43,"time_elapsed":74221,"internal_node_id":"0.0-2.0-0.41"},{"rt":1147,"stimulus":"images/Broccoli/With_Backgrounds/difficulty5_image0.png","response":1,"category":"Broccoli","background_difficulty":"5","image_path":"images/Broccoli/With_Backgrounds/difficulty5_image0.png","trial_type":"image-button-response","trial_index":44,"time_elapsed":75372,"internal_node_id":"0.0-2.0-0.42"},{"rt":2744,"stimulus":"images/Other/With_Backgrounds/difficulty0_image6.png","response":7,"category":"Other","background_difficulty":"0","image_path":"images/Other/With_Backgrounds/difficulty0_image6.png","trial_type":"image-button-response","trial_index":45,"time_elapsed":78121,"internal_node_id":"0.0-2.0-0.43"},{"rt":1144,"stimulus":"images/Dog/With_Backgrounds/difficulty5_image1.png","response":4,"category":"Dog","background_difficulty":"5","image_path":"images/Dog/With_Backgrounds/difficulty5_image1.png","trial_type":"image-button-response","trial_index":46,"time_elapsed":79270,"internal_node_id":"0.0-2.0-0.44"},{"rt":1412,"stimulus":"images/Car/With_Backgrounds/difficulty5_image6.png","response":2,"category":"Car","background_difficulty":"5","image_path":"images/Car/With_Backgrounds/difficulty5_image6.png","trial_type":"image-button-response","trial_index":47,"time_elapsed":80687,"internal_node_id":"0.0-2.0-0.45"},{"rt":1162,"stimulus":"images/Human/With_Backgrounds/difficulty6_image0.png","response":5,"category":"Human","background_difficulty":"6","image_path":"images/Human/With_Backgrounds/difficulty6_image0.png","trial_type":"image-button-response","trial_index":48,"time_elapsed":81853,"internal_node_id":"0.0-2.0-0.46"},{"rt":832,"stimulus":"images/Human/With_Backgrounds/difficulty2_image3.png","response":5,"category":"Human","background_difficulty":"2","image_path":"images/Human/With_Backgrounds/difficulty2_image3.png","trial_type":"image-button-response","trial_index":49,"time_elapsed":82690,"internal_node_id":"0.0-2.0-0.47"},{"rt":854,"stimulus":"images/Human/With_Backgrounds/difficulty5_image6.png","response":5,"category":"Human","background_difficulty":"5","image_path":"images/Human/With_Backgrounds/difficulty5_image6.png","trial_type":"image-button-response","trial_index":50,"time_elapsed":83550,"internal_node_id":"0.0-2.0-0.48"},{"rt":1272,"stimulus":"images/Boat/With_Backgrounds/difficulty1_image6.png","response":0,"category":"Boat","background_difficulty":"1","image_path":"images/Boat/With_Backgrounds/difficulty1_image6.png","trial_type":"image-button-response","trial_index":51,"time_elapsed":84824,"internal_node_id":"0.0-2.0-0.49"},{"rt":1142,"stimulus":"images/Dog/With_Backgrounds/difficulty8_image5.png","response":4,"category":"Dog","background_difficulty":"8","image_path":"images/Dog/With_Backgrounds/difficulty8_image5.png","trial_type":"image-button-response","trial_index":52,"time_elapsed":85972,"internal_node_id":"0.0-2.0-0.50"},{"rt":1342,"stimulus":"images/Other/With_Backgrounds/difficulty3_image8.png","response":7,"category":"Other","background_difficulty":"3","image_path":"images/Other/With_Backgrounds/difficulty3_image8.png","trial_type":"image-button-response","trial_index":53,"time_elapsed":87319,"internal_node_id":"0.0-2.0-0.51"},{"rt":980,"stimulus":"images/Human/With_Backgrounds/difficulty8_image4.png","response":5,"category":"Human","background_difficulty":"8","image_path":"images/Human/With_Backgrounds/difficulty8_image4.png","trial_type":"image-button-response","trial_index":54,"time_elapsed":88306,"internal_node_id":"0.0-2.0-0.52"},{"rt":1294,"stimulus":"images/Broccoli/With_Backgrounds/difficulty3_image6.png","response":1,"category":"Broccoli","background_difficulty":"3","image_path":"images/Broccoli/With_Backgrounds/difficulty3_image6.png","trial_type":"image-button-response","trial_index":55,"time_elapsed":89606,"internal_node_id":"0.0-2.0-0.53"},{"rt":1749,"stimulus":"images/Car/With_Backgrounds/difficulty0_image2.png","response":2,"category":"Car","background_difficulty":"0","image_path":"images/Car/With_Backgrounds/difficulty0_image2.png","trial_type":"image-button-response","trial_index":56,"time_elapsed":91359,"internal_node_id":"0.0-2.0-0.54"},{"rt":1072,"stimulus":"images/Dog/With_Backgrounds/difficulty0_image0.png","response":4,"category":"Dog","background_difficulty":"0","image_path":"images/Dog/With_Backgrounds/difficulty0_image0.png","trial_type":"image-button-response","trial_index":57,"time_elapsed":92437,"internal_node_id":"0.0-2.0-0.55"},{"rt":1196,"stimulus":"images/Other/With_Backgrounds/difficulty1_image9.png","response":7,"category":"Other","background_difficulty":"1","image_path":"images/Other/With_Backgrounds/difficulty1_image9.png","trial_type":"image-button-response","trial_index":58,"time_elapsed":93637,"internal_node_id":"0.0-2.0-0.56"},{"rt":1880,"stimulus":"images/Boat/With_Backgrounds/difficulty0_image7.png","response":0,"category":"Boat","background_difficulty":"0","image_path":"images/Boat/With_Backgrounds/difficulty0_image7.png","trial_type":"image-button-response","trial_index":59,"time_elapsed":95520,"internal_node_id":"0.0-2.0-0.57"},{"rt":1315,"stimulus":"images/Tree/With_Backgrounds/difficulty0_image2.png","response":6,"category":"Tree","background_difficulty":"0","image_path":"images/Tree/With_Backgrounds/difficulty0_image2.png","trial_type":"image-button-response","trial_index":60,"time_elapsed":96839,"internal_node_id":"0.0-2.0-0.58"},{"rt":1026,"stimulus":"images/Tree/With_Backgrounds/difficulty3_image9.png","response":6,"category":"Tree","background_difficulty":"3","image_path":"images/Tree/With_Backgrounds/difficulty3_image9.png","trial_type":"image-button-response","trial_index":61,"time_elapsed":97870,"internal_node_id":"0.0-2.0-0.59"},{"rt":1174,"stimulus":"images/Boat/With_Backgrounds/difficulty5_image4.png","response":0,"category":"Boat","background_difficulty":"5","image_path":"images/Boat/With_Backgrounds/difficulty5_image4.png","trial_type":"image-button-response","trial_index":62,"time_elapsed":99047,"internal_node_id":"0.0-2.0-0.60"},{"rt":1134,"stimulus":"images/Human/With_Backgrounds/difficulty7_image7.png","response":5,"category":"Human","background_difficulty":"7","image_path":"images/Human/With_Backgrounds/difficulty7_image7.png","trial_type":"image-button-response","trial_index":63,"time_elapsed":100187,"internal_node_id":"0.0-2.0-0.61"},{"rt":1187,"stimulus":"images/Boat/With_Backgrounds/difficulty2_image3.png","response":0,"category":"Boat","background_difficulty":"2","image_path":"images/Boat/With_Backgrounds/difficulty2_image3.png","trial_type":"image-button-response","trial_index":64,"time_elapsed":101378,"internal_node_id":"0.0-2.0-0.62"},{"rt":1107,"stimulus":"images/Dog/With_Backgrounds/difficulty7_image9.png","response":4,"category":"Dog","background_difficulty":"7","image_path":"images/Dog/With_Backgrounds/difficulty7_image9.png","trial_type":"image-button-response","trial_index":65,"time_elapsed":102492,"internal_node_id":"0.0-2.0-0.63"},{"rt":813,"stimulus":"images/Dog/With_Backgrounds/difficulty4_image2.png","response":4,"category":"Dog","background_difficulty":"4","image_path":"images/Dog/With_Backgrounds/difficulty4_image2.png","trial_type":"image-button-response","trial_index":66,"time_elapsed":103308,"internal_node_id":"0.0-2.0-0.64"},{"rt":1107,"stimulus":"images/Broccoli/With_Backgrounds/difficulty2_image8.png","response":0,"category":"Broccoli","background_difficulty":"2","image_path":"images/Broccoli/With_Backgrounds/difficulty2_image8.png","trial_type":"image-button-response","trial_index":67,"time_elapsed":104420,"internal_node_id":"0.0-2.0-0.65"},{"rt":1780,"stimulus":"images/Human/With_Backgrounds/difficulty0_image9.png","response":5,"category":"Human","background_difficulty":"0","image_path":"images/Human/With_Backgrounds/difficulty0_image9.png","trial_type":"image-button-response","trial_index":68,"time_elapsed":106204,"internal_node_id":"0.0-2.0-0.66"},{"rt":979,"stimulus":"images/Dog/With_Backgrounds/difficulty1_image8.png","response":4,"category":"Dog","background_difficulty":"1","image_path":"images/Dog/With_Backgrounds/difficulty1_image8.png","trial_type":"image-button-response","trial_index":69,"time_elapsed":107188,"internal_node_id":"0.0-2.0-0.67"},{"rt":1029,"stimulus":"images/Broccoli/With_Backgrounds/difficulty7_image9.png","response":1,"category":"Broccoli","background_difficulty":"7","image_path":"images/Broccoli/With_Backgrounds/difficulty7_image9.png","trial_type":"image-button-response","trial_index":70,"time_elapsed":108221,"internal_node_id":"0.0-2.0-0.68"},{"rt":1393,"stimulus":"images/Other/With_Backgrounds/difficulty4_image2.png","response":7,"category":"Other","background_difficulty":"4","image_path":"images/Other/With_Backgrounds/difficulty4_image2.png","trial_type":"image-button-response","trial_index":71,"time_elapsed":109623,"internal_node_id":"0.0-2.0-0.69"},{"rt":1026,"stimulus":"images/Human/With_Backgrounds/difficulty3_image8.png","response":5,"category":"Human","background_difficulty":"3","image_path":"images/Human/With_Backgrounds/difficulty3_image8.png","trial_type":"image-button-response","trial_index":72,"time_elapsed":110656,"internal_node_id":"0.0-2.0-0.70"},{"rt":1837,"stimulus":"images/Car/With_Backgrounds/difficulty3_image9.png","response":2,"category":"Car","background_difficulty":"3","image_path":"images/Car/With_Backgrounds/difficulty3_image9.png","trial_type":"image-button-response","trial_index":73,"time_elapsed":112497,"internal_node_id":"0.0-2.0-0.71"},{"rt":1283,"stimulus":["<h2>Press the button below to end experiment.</h2><p>Thank you for participating!</p>"],"response":0,"trial_type":"html-button-response","trial_index":74,"time_elapsed":113782,"internal_node_id":"0.0-3.0"}]