[{"success":true,"timeout":false,"failed_images":[],"failed_audio":[],"failed_video":[],"trial_type":"preload","trial_index":0,"time_elapsed":1951,"internal_node_id":"0.0-0.0"},{"rt":3324,"stimulus":["<h2>Noisy background image classification</h2><p>In this experiment you will briefly see images on top of colored squares of various sizes.</p><p>Your task is to report what each image is, selecting \"None of the Above\" if none of the given options are correct.</p> <p>The possible options are <strong>Boat</strong>, <strong>Broccoli</strong>, <strong>Car</strong>, <strong>Cat</strong>, <strong>Dog</strong>, <strong>Human</strong>, <strong>Tree</strong>, and <strong>None of the Above</strong>"],"response":0,"trial_type":"html-button-response","trial_index":1,"time_elapsed":5276,"internal_node_id":"0.0-1.0"},{"rt":5278,"stimulus":"images/Human/With_Backgrounds/difficulty8_image5.png","response":7,"category":"Human","background_difficulty":"8","image_path":"images/Human/With_Backgrounds/difficulty8_image5.png","trial_type":"image-button-response","trial_index":2,"time_elapsed":10563,"internal_node_id":"0.0-2.0-0.0"},{"rt":4343,"stimulus":"images/Broccoli/With_Backgrounds/difficulty5_image7.png","response":1,"category":"Broccoli","background_difficulty":"5","image_path":"images/Broccoli/With_Backgrounds/difficulty5_image7.png","trial_type":"image-button-response","trial_index":3,"time_elapsed":14908,"internal_node_id":"0.0-2.0-0.1"},{"rt":2958,"stimulus":"images/Boat/With_Backgrounds/difficulty6_image1.png","response":0,"category":"Boat","background_difficulty":"6","image_path":"images/Boat/With_Backgrounds/difficulty6_image1.png","trial_type":"image-button-response","trial_index":4,"time_elapsed":17867,"internal_node_id":"0.0-2.0-0.2"},{"rt":2138,"stimulus":"images/Car/With_Backgrounds/difficulty7_image3.png","response":2,"category":"Car","background_difficulty":"7","image_path":"images/Car/With_Backgrounds/difficulty7_image3.png","trial_type":"image-button-response","trial_index":5,"time_elapsed":20006,"internal_node_id":"0.0-2.0-0.3"},{"rt":1579,"stimulus":"images/Dog/With_Backgrounds/difficulty2_image4.png","response":4,"category":"Dog","background_difficulty":"2","image_path":"images/Dog/With_Backgrounds/difficulty2_image4.png","trial_type":"image-button-response","trial_index":6,"time_elapsed":21587,"internal_node_id":"0.0-2.0-0.4"},{"rt":1945,"stimulus":"images/Human/With_Backgrounds/difficulty6_image8.png","response":5,"category":"Human","background_difficulty":"6","image_path":"images/Human/With_Backgrounds/difficulty6_image8.png","trial_type":"image-button-response","trial_index":7,"time_elapsed":23534,"internal_node_id":"0.0-2.0-0.5"},{"rt":3721,"stimulus":"images/Tree/With_Backgrounds/difficulty8_image5.png","response":6,"category":"Tree","background_difficulty":"8","image_path":"images/Tree/With_Backgrounds/difficulty8_image5.png","trial_type":"image-button-response","trial_index":8,"time_elapsed":27257,"internal_node_id":"0.0-2.0-0.6"},{"rt":2937,"stimulus":"images/Other/With_Backgrounds/difficulty3_image5.png","response":7,"category":"Other","background_difficulty":"3","image_path":"images/Other/With_Backgrounds/difficulty3_image5.png","trial_type":"image-button-response","trial_index":9,"time_elapsed":30196,"internal_node_id":"0.0-2.0-0.7"},{"rt":1935,"stimulus":"images/Tree/With_Backgrounds/difficulty7_image7.png","response":6,"category":"Tree","background_difficulty":"7","image_path":"images/Tree/With_Backgrounds/difficulty7_image7.png","trial_type":"image-button-response","trial_index":10,"time_elapsed":32132,"internal_node_id":"0.0-2.0-0.8"},{"rt":1622,"stimulus":"images/Other/With_Backgrounds/difficulty8_image3.png","response":7,"category":"Other","background_difficulty":"8","image_path":"images/Other/With_Backgrounds/difficulty8_image3.png","trial_type":"image-button-response","trial_index":11,"time_elapsed":33756,"internal_node_id":"0.0-2.0-0.9"},{"rt":1271,"stimulus":"images/Other/With_Backgrounds/difficulty0_image2.png","response":7,"category":"Other","background_difficulty":"0","image_path":"images/Other/With_Backgrounds/difficulty0_image2.png","trial_type":"image-button-response","trial_index":12,"time_elapsed":35028,"internal_node_id":"0.0-2.0-0.10"},{"rt":1298,"stimulus":"images/Dog/With_Backgrounds/difficulty1_image6.png","response":4,"category":"Dog","background_difficulty":"1","image_path":"images/Dog/With_Backgrounds/difficulty1_image6.png","trial_type":"image-button-response","trial_index":13,"time_elapsed":36327,"internal_node_id":"0.0-2.0-0.11"},{"rt":1893,"stimulus":"images/Broccoli/With_Backgrounds/difficulty6_image0.png","response":1,"category":"Broccoli","background_difficulty":"6","image_path":"images/Broccoli/With_Backgrounds/difficulty6_image0.png","trial_type":"image-button-response","trial_index":14,"time_elapsed":38222,"internal_node_id":"0.0-2.0-0.12"},{"rt":1632,"stimulus":"images/Boat/With_Backgrounds/difficulty0_image3.png","response":0,"category":"Boat","background_difficulty":"0","image_path":"images/Boat/With_Backgrounds/difficulty0_image3.png","trial_type":"image-button-response","trial_index":15,"time_elapsed":39855,"internal_node_id":"0.0-2.0-0.13"},{"rt":2016,"stimulus":"images/Tree/With_Backgrounds/difficulty4_image2.png","response":6,"category":"Tree","background_difficulty":"4","image_path":"images/Tree/With_Backgrounds/difficulty4_image2.png","trial_type":"image-button-response","trial_index":16,"time_elapsed":41872,"internal_node_id":"0.0-2.0-0.14"},{"rt":1800,"stimulus":"images/Car/With_Backgrounds/difficulty8_image4.png","response":2,"category":"Car","background_difficulty":"8","image_path":"images/Car/With_Backgrounds/difficulty8_image4.png","trial_type":"image-button-response","trial_index":17,"time_elapsed":43673,"internal_node_id":"0.0-2.0-0.15"},{"rt":1537,"stimulus":"images/Cat/With_Backgrounds/difficulty4_image4.png","response":3,"category":"Cat","background_difficulty":"4","image_path":"images/Cat/With_Backgrounds/difficulty4_image4.png","trial_type":"image-button-response","trial_index":18,"time_elapsed":45212,"internal_node_id":"0.0-2.0-0.16"},{"rt":1448,"stimulus":"images/Car/With_Backgrounds/difficulty2_image6.png","response":2,"category":"Car","background_difficulty":"2","image_path":"images/Car/With_Backgrounds/difficulty2_image6.png","trial_type":"image-button-response","trial_index":19,"time_elapsed":46662,"internal_node_id":"0.0-2.0-0.17"},{"rt":1431,"stimulus":"images/Cat/With_Backgrounds/difficulty0_image9.png","response":3,"category":"Cat","background_difficulty":"0","image_path":"images/Cat/With_Backgrounds/difficulty0_image9.png","trial_type":"image-button-response","trial_index":20,"time_elapsed":48095,"internal_node_id":"0.0-2.0-0.18"},{"rt":1779,"stimulus":"images/Tree/With_Backgrounds/difficulty0_image6.png","response":6,"category":"Tree","background_difficulty":"0","image_path":"images/Tree/With_Backgrounds/difficulty0_image6.png","trial_type":"image-button-response","trial_index":21,"time_elapsed":49875,"internal_node_id":"0.0-2.0-0.19"},{"rt":3033,"stimulus":"images/Boat/With_Backgrounds/difficulty3_image4.png","response":0,"category":"Boat","background_difficulty":"3","image_path":"images/Boat/With_Backgrounds/difficulty3_image4.png","trial_type":"image-button-response","trial_index":22,"time_elapsed":52909,"internal_node_id":"0.0-2.0-0.20"},{"rt":1836,"stimulus":"images/Tree/With_Backgrounds/difficulty3_image4.png","response":6,"category":"Tree","background_difficulty":"3","image_path":"images/Tree/With_Backgrounds/difficulty3_image4.png","trial_type":"image-button-response","trial_index":23,"time_elapsed":54747,"internal_node_id":"0.0-2.0-0.21"},{"rt":2456,"stimulus":"images/Human/With_Backgrounds/difficulty1_image7.png","response":5,"category":"Human","background_difficulty":"1","image_path":"images/Human/With_Backgrounds/difficulty1_image7.png","trial_type":"image-button-response","trial_index":24,"time_elapsed":57204,"internal_node_id":"0.0-2.0-0.22"},{"rt":1802,"stimulus":"images/Cat/With_Backgrounds/difficulty3_image0.png","response":3,"category":"Cat","background_difficulty":"3","image_path":"images/Cat/With_Backgrounds/difficulty3_image0.png","trial_type":"image-button-response","trial_index":25,"time_elapsed":59008,"internal_node_id":"0.0-2.0-0.23"},{"rt":1424,"stimulus":"images/Human/With_Backgrounds/difficulty3_image2.png","response":5,"category":"Human","background_difficulty":"3","image_path":"images/Human/With_Backgrounds/difficulty3_image2.png","trial_type":"image-button-response","trial_index":26,"time_elapsed":60433,"internal_node_id":"0.0-2.0-0.24"},{"rt":1617,"stimulus":"images/Broccoli/With_Backgrounds/difficulty3_image3.png","response":1,"category":"Broccoli","background_difficulty":"3","image_path":"images/Broccoli/With_Backgrounds/difficulty3_image3.png","trial_type":"image-button-response","trial_index":27,"time_elapsed":62051,"internal_node_id":"0.0-2.0-0.25"},{"rt":2601,"stimulus":"images/Boat/With_Backgrounds/difficulty8_image5.png","response":0,"category":"Boat","background_difficulty":"8","image_path":"images/Boat/With_Backgrounds/difficulty8_image5.png","trial_type":"image-button-response","trial_index":28,"time_elapsed":64652,"internal_node_id":"0.0-2.0-0.26"},{"rt":1455,"stimulus":"images/Tree/With_Backgrounds/difficulty2_image0.png","response":6,"category":"Tree","background_difficulty":"2","image_path":"images/Tree/With_Backgrounds/difficulty2_image0.png","trial_type":"image-button-response","trial_index":29,"time_elapsed":66109,"internal_node_id":"0.0-2.0-0.27"},{"rt":2047,"stimulus":"images/Cat/With_Backgrounds/difficulty1_image5.png","response":3,"category":"Cat","background_difficulty":"1","image_path":"images/Cat/With_Backgrounds/difficulty1_image5.png","trial_type":"image-button-response","trial_index":30,"time_elapsed":68157,"internal_node_id":"0.0-2.0-0.28"},{"rt":1890,"stimulus":"images/Tree/With_Backgrounds/difficulty5_image1.png","response":6,"category":"Tree","background_difficulty":"5","image_path":"images/Tree/With_Backgrounds/difficulty5_image1.png","trial_type":"image-button-response","trial_index":31,"time_elapsed":70047,"internal_node_id":"0.0-2.0-0.29"},{"rt":1636,"stimulus":"images/Other/With_Backgrounds/difficulty4_image4.png","response":7,"category":"Other","background_difficulty":"4","image_path":"images/Other/With_Backgrounds/difficulty4_image4.png","trial_type":"image-button-response","trial_index":32,"time_elapsed":71684,"internal_node_id":"0.0-2.0-0.30"},{"rt":1969,"stimulus":"images/Boat/With_Backgrounds/difficulty1_image9.png","response":0,"category":"Boat","background_difficulty":"1","image_path":"images/Boat/With_Backgrounds/difficulty1_image9.png","trial_type":"image-button-response","trial_index":33,"time_elapsed":73655,"internal_node_id":"0.0-2.0-0.31"},{"rt":1514,"stimulus":"images/Tree/With_Backgrounds/difficulty1_image8.png","response":6,"category":"Tree","background_difficulty":"1","image_path":"images/Tree/With_Backgrounds/difficulty1_image8.png","trial_type":"image-button-response","trial_index":34,"time_elapsed":75170,"internal_node_id":"0.0-2.0-0.32"},{"rt":1591,"stimulus":"images/Human/With_Backgrounds/difficulty7_image3.png","response":5,"category":"Human","background_difficulty":"7","image_path":"images/Human/With_Backgrounds/difficulty7_image3.png","trial_type":"image-button-response","trial_index":35,"time_elapsed":76762,"internal_node_id":"0.0-2.0-0.33"},{"rt":2148,"stimulus":"images/Broccoli/With_Backgrounds/difficulty0_image9.png","response":1,"category":"Broccoli","background_difficulty":"0","image_path":"images/Broccoli/With_Backgrounds/difficulty0_image9.png","trial_type":"image-button-response","trial_index":36,"time_elapsed":78912,"internal_node_id":"0.0-2.0-0.34"},{"rt":1757,"stimulus":"images/Human/With_Backgrounds/difficulty2_image9.png","response":5,"category":"Human","background_difficulty":"2","image_path":"images/Human/With_Backgrounds/difficulty2_image9.png","trial_type":"image-button-response","trial_index":37,"time_elapsed":80670,"internal_node_id":"0.0-2.0-0.35"},{"rt":1479,"stimulus":"images/Broccoli/With_Backgrounds/difficulty4_image5.png","response":1,"category":"Broccoli","background_difficulty":"4","image_path":"images/Broccoli/With_Backgrounds/difficulty4_image5.png","trial_type":"image-button-response","trial_index":38,"time_elapsed":82151,"internal_node_id":"0.0-2.0-0.36"},{"rt":1349,"stimulus":"images/Dog/With_Backgrounds/difficulty3_image5.png","response":4,"category":"Dog","background_difficulty":"3","image_path":"images/Dog/With_Backgrounds/difficulty3_image5.png","trial_type":"image-button-response","trial_index":39,"time_elapsed":83502,"internal_node_id":"0.0-2.0-0.37"},{"rt":1416,"stimulus":"images/Other/With_Backgrounds/difficulty6_image9.png","response":7,"category":"Other","background_difficulty":"6","image_path":"images/Other/With_Backgrounds/difficulty6_image9.png","trial_type":"image-button-response","trial_index":40,"time_elapsed":84918,"internal_node_id":"0.0-2.0-0.38"},{"rt":1331,"stimulus":"images/Broccoli/With_Backgrounds/difficulty7_image6.png","response":1,"category":"Broccoli","background_difficulty":"7","image_path":"images/Broccoli/With_Backgrounds/difficulty7_image6.png","trial_type":"image-button-response","trial_index":41,"time_elapsed":86251,"internal_node_id":"0.0-2.0-0.39"},{"rt":1853,"stimulus":"images/Human/With_Backgrounds/difficulty4_image4.png","response":5,"category":"Human","background_difficulty":"4","image_path":"images/Human/With_Backgrounds/difficulty4_image4.png","trial_type":"image-button-response","trial_index":42,"time_elapsed":88104,"internal_node_id":"0.0-2.0-0.40"},{"rt":1898,"stimulus":"images/Car/With_Backgrounds/difficulty4_image8.png","response":2,"category":"Car","background_difficulty":"4","image_path":"images/Car/With_Backgrounds/difficulty4_image8.png","trial_type":"image-button-response","trial_index":43,"time_elapsed":90004,"internal_node_id":"0.0-2.0-0.41"},{"rt":1558,"stimulus":"images/Tree/With_Backgrounds/difficulty6_image9.png","response":6,"category":"Tree","background_difficulty":"6","image_path":"images/Tree/With_Backgrounds/difficulty6_image9.png","trial_type":"image-button-response","trial_index":44,"time_elapsed":91563,"internal_node_id":"0.0-2.0-0.42"},{"rt":1553,"stimulus":"images/Boat/With_Backgrounds/difficulty7_image0.png","response":0,"category":"Boat","background_difficulty":"7","image_path":"images/Boat/With_Backgrounds/difficulty7_image0.png","trial_type":"image-button-response","trial_index":45,"time_elapsed":93117,"internal_node_id":"0.0-2.0-0.43"},{"rt":2481,"stimulus":"images/Human/With_Backgrounds/difficulty5_image0.png","response":5,"category":"Human","background_difficulty":"5","image_path":"images/Human/With_Backgrounds/difficulty5_image0.png","trial_type":"image-button-response","trial_index":46,"time_elapsed":95601,"internal_node_id":"0.0-2.0-0.44"},{"rt":2005,"stimulus":"images/Cat/With_Backgrounds/difficulty6_image3.png","response":3,"category":"Cat","background_difficulty":"6","image_path":"images/Cat/With_Backgrounds/difficulty6_image3.png","trial_type":"image-button-response","trial_index":47,"time_elapsed":97608,"internal_node_id":"0.0-2.0-0.45"},{"rt":2104,"stimulus":"images/Car/With_Backgrounds/difficulty1_image0.png","response":2,"category":"Car","background_difficulty":"1","image_path":"images/Car/With_Backgrounds/difficulty1_image0.png","trial_type":"image-button-response","trial_index":48,"time_elapsed":99714,"internal_node_id":"0.0-2.0-0.46"},{"rt":1448,"stimulus":"images/Other/With_Backgrounds/difficulty7_image7.png","response":7,"category":"Other","background_difficulty":"7","image_path":"images/Other/With_Backgrounds/difficulty7_image7.png","trial_type":"image-button-response","trial_index":49,"time_elapsed":101164,"internal_node_id":"0.0-2.0-0.47"},{"rt":1316,"stimulus":"images/Cat/With_Backgrounds/difficulty8_image1.png","response":3,"category":"Cat","background_difficulty":"8","image_path":"images/Cat/With_Backgrounds/difficulty8_image1.png","trial_type":"image-button-response","trial_index":50,"time_elapsed":102481,"internal_node_id":"0.0-2.0-0.48"},{"rt":2188,"stimulus":"images/Boat/With_Backgrounds/difficulty4_image7.png","response":0,"category":"Boat","background_difficulty":"4","image_path":"images/Boat/With_Backgrounds/difficulty4_image7.png","trial_type":"image-button-response","trial_index":51,"time_elapsed":104671,"internal_node_id":"0.0-2.0-0.49"},{"rt":2128,"stimulus":"images/Car/With_Backgrounds/difficulty5_image2.png","response":2,"category":"Car","background_difficulty":"5","image_path":"images/Car/With_Backgrounds/difficulty5_image2.png","trial_type":"image-button-response","trial_index":52,"time_elapsed":106800,"internal_node_id":"0.0-2.0-0.50"},{"rt":1446,"stimulus":"images/Dog/With_Backgrounds/difficulty0_image1.png","response":4,"category":"Dog","background_difficulty":"0","image_path":"images/Dog/With_Backgrounds/difficulty0_image1.png","trial_type":"image-button-response","trial_index":53,"time_elapsed":108248,"internal_node_id":"0.0-2.0-0.51"},{"rt":1030,"stimulus":"images/Dog/With_Backgrounds/difficulty7_image2.png","response":4,"category":"Dog","background_difficulty":"7","image_path":"images/Dog/With_Backgrounds/difficulty7_image2.png","trial_type":"image-button-response","trial_index":54,"time_elapsed":109279,"internal_node_id":"0.0-2.0-0.52"},{"rt":1138,"stimulus":"images/Dog/With_Backgrounds/difficulty6_image9.png","response":4,"category":"Dog","background_difficulty":"6","image_path":"images/Dog/With_Backgrounds/difficulty6_image9.png","trial_type":"image-button-response","trial_index":55,"time_elapsed":110419,"internal_node_id":"0.0-2.0-0.53"},{"rt":1007,"stimulus":"images/Dog/With_Backgrounds/difficulty5_image8.png","response":4,"category":"Dog","background_difficulty":"5","image_path":"images/Dog/With_Backgrounds/difficulty5_image8.png","trial_type":"image-button-response","trial_index":56,"time_elapsed":111428,"internal_node_id":"0.0-2.0-0.54"},{"rt":989,"stimulus":"images/Dog/With_Backgrounds/difficulty4_image3.png","response":4,"category":"Dog","background_difficulty":"4","image_path":"images/Dog/With_Backgrounds/difficulty4_image3.png","trial_type":"image-button-response","trial_index":57,"time_elapsed":112418,"internal_node_id":"0.0-2.0-0.55"},{"rt":1340,"stimulus":"images/Cat/With_Backgrounds/difficulty7_image7.png","response":3,"category":"Cat","background_difficulty":"7","image_path":"images/Cat/With_Backgrounds/difficulty7_image7.png","trial_type":"image-button-response","trial_index":58,"time_elapsed":113760,"internal_node_id":"0.0-2.0-0.56"},{"rt":2686,"stimulus":"images/Car/With_Backgrounds/difficulty3_image7.png","response":2,"category":"Car","background_difficulty":"3","image_path":"images/Car/With_Backgrounds/difficulty3_image7.png","trial_type":"image-button-response","trial_index":59,"time_elapsed":116447,"internal_node_id":"0.0-2.0-0.57"},{"rt":958,"stimulus":"images/Car/With_Backgrounds/difficulty0_image1.png","response":2,"category":"Car","background_difficulty":"0","image_path":"images/Car/With_Backgrounds/difficulty0_image1.png","trial_type":"image-button-response","trial_index":60,"time_elapsed":117406,"internal_node_id":"0.0-2.0-0.58"},{"rt":1357,"stimulus":"images/Other/With_Backgrounds/difficulty2_image0.png","response":7,"category":"Other","background_difficulty":"2","image_path":"images/Other/With_Backgrounds/difficulty2_image0.png","trial_type":"image-button-response","trial_index":61,"time_elapsed":118765,"internal_node_id":"0.0-2.0-0.59"},{"rt":1796,"stimulus":"images/Broccoli/With_Backgrounds/difficulty8_image4.png","response":1,"category":"Broccoli","background_difficulty":"8","image_path":"images/Broccoli/With_Backgrounds/difficulty8_image4.png","trial_type":"image-button-response","trial_index":62,"time_elapsed":120562,"internal_node_id":"0.0-2.0-0.60"},{"rt":2222,"stimulus":"images/Boat/With_Backgrounds/difficulty5_image6.png","response":0,"category":"Boat","background_difficulty":"5","image_path":"images/Boat/With_Backgrounds/difficulty5_image6.png","trial_type":"image-button-response","trial_index":63,"time_elapsed":122786,"internal_node_id":"0.0-2.0-0.61"},{"rt":1717,"stimulus":"images/Human/With_Backgrounds/difficulty0_image1.png","response":5,"category":"Human","background_difficulty":"0","image_path":"images/Human/With_Backgrounds/difficulty0_image1.png","trial_type":"image-button-response","trial_index":64,"time_elapsed":124504,"internal_node_id":"0.0-2.0-0.62"},{"rt":1758,"stimulus":"images/Broccoli/With_Backgrounds/difficulty1_image8.png","response":0,"category":"Broccoli","background_difficulty":"1","image_path":"images/Broccoli/With_Backgrounds/difficulty1_image8.png","trial_type":"image-button-response","trial_index":65,"time_elapsed":126264,"internal_node_id":"0.0-2.0-0.63"},{"rt":1795,"stimulus":"images/Other/With_Backgrounds/difficulty1_image8.png","response":7,"category":"Other","background_difficulty":"1","image_path":"images/Other/With_Backgrounds/difficulty1_image8.png","trial_type":"image-button-response","trial_index":66,"time_elapsed":128060,"internal_node_id":"0.0-2.0-0.64"},{"rt":1768,"stimulus":"images/Broccoli/With_Backgrounds/difficulty2_image2.png","response":1,"category":"Broccoli","background_difficulty":"2","image_path":"images/Broccoli/With_Backgrounds/difficulty2_image2.png","trial_type":"image-button-response","trial_index":67,"time_elapsed":129829,"internal_node_id":"0.0-2.0-0.65"},{"rt":1507,"stimulus":"images/Other/With_Backgrounds/difficulty5_image6.png","response":7,"category":"Other","background_difficulty":"5","image_path":"images/Other/With_Backgrounds/difficulty5_image6.png","trial_type":"image-button-response","trial_index":68,"time_elapsed":131338,"internal_node_id":"0.0-2.0-0.66"},{"rt":2155,"stimulus":"images/Boat/With_Backgrounds/difficulty2_image8.png","response":0,"category":"Boat","background_difficulty":"2","image_path":"images/Boat/With_Backgrounds/difficulty2_image8.png","trial_type":"image-button-response","trial_index":69,"time_elapsed":133495,"internal_node_id":"0.0-2.0-0.67"},{"rt":2961,"stimulus":"images/Car/With_Backgrounds/difficulty6_image9.png","response":2,"category":"Car","background_difficulty":"6","image_path":"images/Car/With_Backgrounds/difficulty6_image9.png","trial_type":"image-button-response","trial_index":70,"time_elapsed":136456,"internal_node_id":"0.0-2.0-0.68"},{"rt":2250,"stimulus":"images/Cat/With_Backgrounds/difficulty2_image8.png","response":3,"category":"Cat","background_difficulty":"2","image_path":"images/Cat/With_Backgrounds/difficulty2_image8.png","trial_type":"image-button-response","trial_index":71,"time_elapsed":138708,"internal_node_id":"0.0-2.0-0.69"},{"rt":886,"stimulus":"images/Cat/With_Backgrounds/difficulty5_image6.png","response":3,"category":"Cat","background_difficulty":"5","image_path":"images/Cat/With_Backgrounds/difficulty5_image6.png","trial_type":"image-button-response","trial_index":72,"time_elapsed":139595,"internal_node_id":"0.0-2.0-0.70"},{"rt":1290,"stimulus":"images/Dog/With_Backgrounds/difficulty8_image7.png","response":4,"category":"Dog","background_difficulty":"8","image_path":"images/Dog/With_Backgrounds/difficulty8_image7.png","trial_type":"image-button-response","trial_index":73,"time_elapsed":140887,"internal_node_id":"0.0-2.0-0.71"},{"rt":1567,"stimulus":["<h2>Press the button below to end experiment.</h2><p>Thank you for participating!</p>"],"response":0,"trial_type":"html-button-response","trial_index":74,"time_elapsed":142454,"internal_node_id":"0.0-3.0"}]