[{"success":true,"timeout":false,"failed_images":[],"failed_audio":[],"failed_video":[],"trial_type":"preload","trial_index":0,"time_elapsed":789,"internal_node_id":"0.0-0.0"},{"rt":8078,"stimulus":["<h2>Noisy background image classification</h2><p>In this experiment you will briefly see images on top of colored squares of various sizes.</p><p>Your task is to report what each image is, selecting \"None of the Above\" if none of the given options are correct.</p> <p>The possible options are <strong>Boat</strong>, <strong>Broccoli</strong>, <strong>Car</strong>, <strong>Cat</strong>, <strong>Dog</strong>, <strong>Human</strong>, <strong>Tree</strong>, and <strong>None of the Above</strong>"],"response":0,"trial_type":"html-button-response","trial_index":1,"time_elapsed":8868,"internal_node_id":"0.0-1.0"},{"rt":1879,"stimulus":"images/Cat/With_Backgrounds/difficulty7_image9.png","response":3,"category":"Cat","background_difficulty":"7","image_path":"images/Cat/With_Backgrounds/difficulty7_image9.png","trial_type":"image-button-response","trial_index":2,"time_elapsed":10750,"internal_node_id":"0.0-2.0-0.0"},{"rt":1248,"stimulus":"images/Cat/With_Backgrounds/difficulty8_image5.png","response":3,"category":"Cat","background_difficulty":"8","image_path":"images/Cat/With_Backgrounds/difficulty8_image5.png","trial_type":"image-button-response","trial_index":3,"time_elapsed":11999,"internal_node_id":"0.0-2.0-0.1"},{"rt":1999,"stimulus":"images/Tree/With_Backgrounds/difficulty6_image2.png","response":6,"category":"Tree","background_difficulty":"6","image_path":"images/Tree/With_Backgrounds/difficulty6_image2.png","trial_type":"image-button-response","trial_index":4,"time_elapsed":13999,"internal_node_id":"0.0-2.0-0.2"},{"rt":1813,"stimulus":"images/Dog/With_Backgrounds/difficulty5_image3.png","response":4,"category":"Dog","background_difficulty":"5","image_path":"images/Dog/With_Backgrounds/difficulty5_image3.png","trial_type":"image-button-response","trial_index":5,"time_elapsed":15814,"internal_node_id":"0.0-2.0-0.3"},{"rt":1966,"stimulus":"images/Dog/With_Backgrounds/difficulty7_image4.png","response":4,"category":"Dog","background_difficulty":"7","image_path":"images/Dog/With_Backgrounds/difficulty7_image4.png","trial_type":"image-button-response","trial_index":6,"time_elapsed":17781,"internal_node_id":"0.0-2.0-0.4"},{"rt":1549,"stimulus":"images/Tree/With_Backgrounds/difficulty2_image5.png","response":6,"category":"Tree","background_difficulty":"2","image_path":"images/Tree/With_Backgrounds/difficulty2_image5.png","trial_type":"image-button-response","trial_index":7,"time_elapsed":19332,"internal_node_id":"0.0-2.0-0.5"},{"rt":1712,"stimulus":"images/Car/With_Backgrounds/difficulty2_image6.png","response":2,"category":"Car","background_difficulty":"2","image_path":"images/Car/With_Backgrounds/difficulty2_image6.png","trial_type":"image-button-response","trial_index":8,"time_elapsed":21045,"internal_node_id":"0.0-2.0-0.6"},{"rt":1168,"stimulus":"images/Car/With_Backgrounds/difficulty7_image0.png","response":2,"category":"Car","background_difficulty":"7","image_path":"images/Car/With_Backgrounds/difficulty7_image0.png","trial_type":"image-button-response","trial_index":9,"time_elapsed":22214,"internal_node_id":"0.0-2.0-0.7"},{"rt":1815,"stimulus":"images/Tree/With_Backgrounds/difficulty7_image7.png","response":6,"category":"Tree","background_difficulty":"7","image_path":"images/Tree/With_Backgrounds/difficulty7_image7.png","trial_type":"image-button-response","trial_index":10,"time_elapsed":24030,"internal_node_id":"0.0-2.0-0.8"},{"rt":2280,"stimulus":"images/Other/With_Backgrounds/difficulty6_image2.png","response":7,"category":"Other","background_difficulty":"6","image_path":"images/Other/With_Backgrounds/difficulty6_image2.png","trial_type":"image-button-response","trial_index":11,"time_elapsed":26311,"internal_node_id":"0.0-2.0-0.9"},{"rt":1500,"stimulus":"images/Cat/With_Backgrounds/difficulty5_image1.png","response":3,"category":"Cat","background_difficulty":"5","image_path":"images/Cat/With_Backgrounds/difficulty5_image1.png","trial_type":"image-button-response","trial_index":12,"time_elapsed":27813,"internal_node_id":"0.0-2.0-0.10"},{"rt":1997,"stimulus":"images/Human/With_Backgrounds/difficulty3_image8.png","response":5,"category":"Human","background_difficulty":"3","image_path":"images/Human/With_Backgrounds/difficulty3_image8.png","trial_type":"image-button-response","trial_index":13,"time_elapsed":29811,"internal_node_id":"0.0-2.0-0.11"},{"rt":1981,"stimulus":"images/Broccoli/With_Backgrounds/difficulty5_image6.png","response":1,"category":"Broccoli","background_difficulty":"5","image_path":"images/Broccoli/With_Backgrounds/difficulty5_image6.png","trial_type":"image-button-response","trial_index":14,"time_elapsed":31794,"internal_node_id":"0.0-2.0-0.12"},{"rt":1213,"stimulus":"images/Boat/With_Backgrounds/difficulty1_image5.png","response":0,"category":"Boat","background_difficulty":"1","image_path":"images/Boat/With_Backgrounds/difficulty1_image5.png","trial_type":"image-button-response","trial_index":15,"time_elapsed":33008,"internal_node_id":"0.0-2.0-0.13"},{"rt":1633,"stimulus":"images/Human/With_Backgrounds/difficulty6_image2.png","response":5,"category":"Human","background_difficulty":"6","image_path":"images/Human/With_Backgrounds/difficulty6_image2.png","trial_type":"image-button-response","trial_index":16,"time_elapsed":34642,"internal_node_id":"0.0-2.0-0.14"},{"rt":1313,"stimulus":"images/Human/With_Backgrounds/difficulty7_image3.png","response":5,"category":"Human","background_difficulty":"7","image_path":"images/Human/With_Backgrounds/difficulty7_image3.png","trial_type":"image-button-response","trial_index":17,"time_elapsed":35956,"internal_node_id":"0.0-2.0-0.15"},{"rt":1451,"stimulus":"images/Tree/With_Backgrounds/difficulty8_image8.png","response":6,"category":"Tree","background_difficulty":"8","image_path":"images/Tree/With_Backgrounds/difficulty8_image8.png","trial_type":"image-button-response","trial_index":18,"time_elapsed":37408,"internal_node_id":"0.0-2.0-0.16"},{"rt":2015,"stimulus":"images/Cat/With_Backgrounds/difficulty4_image3.png","response":3,"category":"Cat","background_difficulty":"4","image_path":"images/Cat/With_Backgrounds/difficulty4_image3.png","trial_type":"image-button-response","trial_index":19,"time_elapsed":39424,"internal_node_id":"0.0-2.0-0.17"},{"rt":1248,"stimulus":"images/Car/With_Backgrounds/difficulty8_image5.png","response":2,"category":"Car","background_difficulty":"8","image_path":"images/Car/With_Backgrounds/difficulty8_image5.png","trial_type":"image-button-response","trial_index":20,"time_elapsed":40673,"internal_node_id":"0.0-2.0-0.18"},{"rt":2147,"stimulus":"images/Boat/With_Backgrounds/difficulty5_image0.png","response":0,"category":"Boat","background_difficulty":"5","image_path":"images/Boat/With_Backgrounds/difficulty5_image0.png","trial_type":"image-button-response","trial_index":21,"time_elapsed":42821,"internal_node_id":"0.0-2.0-0.19"},{"rt":2431,"stimulus":"images/Other/With_Backgrounds/difficulty2_image4.png","response":7,"category":"Other","background_difficulty":"2","image_path":"images/Other/With_Backgrounds/difficulty2_image4.png","trial_type":"image-button-response","trial_index":22,"time_elapsed":45254,"internal_node_id":"0.0-2.0-0.20"},{"rt":1499,"stimulus":"images/Boat/With_Backgrounds/difficulty6_image1.png","response":0,"category":"Boat","background_difficulty":"6","image_path":"images/Boat/With_Backgrounds/difficulty6_image1.png","trial_type":"image-button-response","trial_index":23,"time_elapsed":46753,"internal_node_id":"0.0-2.0-0.21"},{"rt":2098,"stimulus":"images/Other/With_Backgrounds/difficulty1_image6.png","response":7,"category":"Other","background_difficulty":"1","image_path":"images/Other/With_Backgrounds/difficulty1_image6.png","trial_type":"image-button-response","trial_index":24,"time_elapsed":48852,"internal_node_id":"0.0-2.0-0.22"},{"rt":1567,"stimulus":"images/Boat/With_Backgrounds/difficulty4_image2.png","response":0,"category":"Boat","background_difficulty":"4","image_path":"images/Boat/With_Backgrounds/difficulty4_image2.png","trial_type":"image-button-response","trial_index":25,"time_elapsed":50421,"internal_node_id":"0.0-2.0-0.23"},{"rt":1546,"stimulus":"images/Car/With_Backgrounds/difficulty1_image3.png","response":2,"category":"Car","background_difficulty":"1","image_path":"images/Car/With_Backgrounds/difficulty1_image3.png","trial_type":"image-button-response","trial_index":26,"time_elapsed":51968,"internal_node_id":"0.0-2.0-0.24"},{"rt":1580,"stimulus":"images/Human/With_Backgrounds/difficulty8_image7.png","response":5,"category":"Human","background_difficulty":"8","image_path":"images/Human/With_Backgrounds/difficulty8_image7.png","trial_type":"image-button-response","trial_index":27,"time_elapsed":53549,"internal_node_id":"0.0-2.0-0.25"},{"rt":3183,"stimulus":"images/Other/With_Backgrounds/difficulty5_image8.png","response":7,"category":"Other","background_difficulty":"5","image_path":"images/Other/With_Backgrounds/difficulty5_image8.png","trial_type":"image-button-response","trial_index":28,"time_elapsed":56733,"internal_node_id":"0.0-2.0-0.26"},{"rt":1449,"stimulus":"images/Boat/With_Backgrounds/difficulty2_image8.png","response":0,"category":"Boat","background_difficulty":"2","image_path":"images/Boat/With_Backgrounds/difficulty2_image8.png","trial_type":"image-button-response","trial_index":29,"time_elapsed":58183,"internal_node_id":"0.0-2.0-0.27"},{"rt":1550,"stimulus":"images/Tree/With_Backgrounds/difficulty0_image0.png","response":6,"category":"Tree","background_difficulty":"0","image_path":"images/Tree/With_Backgrounds/difficulty0_image0.png","trial_type":"image-button-response","trial_index":30,"time_elapsed":59735,"internal_node_id":"0.0-2.0-0.28"},{"rt":1480,"stimulus":"images/Human/With_Backgrounds/difficulty1_image4.png","response":5,"category":"Human","background_difficulty":"1","image_path":"images/Human/With_Backgrounds/difficulty1_image4.png","trial_type":"image-button-response","trial_index":31,"time_elapsed":61216,"internal_node_id":"0.0-2.0-0.29"},{"rt":1447,"stimulus":"images/Dog/With_Backgrounds/difficulty2_image8.png","response":4,"category":"Dog","background_difficulty":"2","image_path":"images/Dog/With_Backgrounds/difficulty2_image8.png","trial_type":"image-button-response","trial_index":32,"time_elapsed":62664,"internal_node_id":"0.0-2.0-0.30"},{"rt":1749,"stimulus":"images/Broccoli/With_Backgrounds/difficulty8_image4.png","response":1,"category":"Broccoli","background_difficulty":"8","image_path":"images/Broccoli/With_Backgrounds/difficulty8_image4.png","trial_type":"image-button-response","trial_index":33,"time_elapsed":64415,"internal_node_id":"0.0-2.0-0.31"},{"rt":1282,"stimulus":"images/Broccoli/With_Backgrounds/difficulty6_image5.png","response":1,"category":"Broccoli","background_difficulty":"6","image_path":"images/Broccoli/With_Backgrounds/difficulty6_image5.png","trial_type":"image-button-response","trial_index":34,"time_elapsed":65698,"internal_node_id":"0.0-2.0-0.32"},{"rt":1434,"stimulus":"images/Human/With_Backgrounds/difficulty0_image0.png","response":5,"category":"Human","background_difficulty":"0","image_path":"images/Human/With_Backgrounds/difficulty0_image0.png","trial_type":"image-button-response","trial_index":35,"time_elapsed":67133,"internal_node_id":"0.0-2.0-0.33"},{"rt":2047,"stimulus":"images/Other/With_Backgrounds/difficulty4_image0.png","response":7,"category":"Other","background_difficulty":"4","image_path":"images/Other/With_Backgrounds/difficulty4_image0.png","trial_type":"image-button-response","trial_index":36,"time_elapsed":69180,"internal_node_id":"0.0-2.0-0.34"},{"rt":1464,"stimulus":"images/Car/With_Backgrounds/difficulty4_image1.png","response":2,"category":"Car","background_difficulty":"4","image_path":"images/Car/With_Backgrounds/difficulty4_image1.png","trial_type":"image-button-response","trial_index":37,"time_elapsed":70645,"internal_node_id":"0.0-2.0-0.35"},{"rt":1349,"stimulus":"images/Human/With_Backgrounds/difficulty5_image5.png","response":5,"category":"Human","background_difficulty":"5","image_path":"images/Human/With_Backgrounds/difficulty5_image5.png","trial_type":"image-button-response","trial_index":38,"time_elapsed":71995,"internal_node_id":"0.0-2.0-0.36"},{"rt":1368,"stimulus":"images/Cat/With_Backgrounds/difficulty6_image0.png","response":3,"category":"Cat","background_difficulty":"6","image_path":"images/Cat/With_Backgrounds/difficulty6_image0.png","trial_type":"image-button-response","trial_index":39,"time_elapsed":73364,"internal_node_id":"0.0-2.0-0.37"},{"rt":1314,"stimulus":"images/Dog/With_Backgrounds/difficulty6_image5.png","response":4,"category":"Dog","background_difficulty":"6","image_path":"images/Dog/With_Backgrounds/difficulty6_image5.png","trial_type":"image-button-response","trial_index":40,"time_elapsed":74679,"internal_node_id":"0.0-2.0-0.38"},{"rt":1432,"stimulus":"images/Dog/With_Backgrounds/difficulty1_image6.png","response":4,"category":"Dog","background_difficulty":"1","image_path":"images/Dog/With_Backgrounds/difficulty1_image6.png","trial_type":"image-button-response","trial_index":41,"time_elapsed":76112,"internal_node_id":"0.0-2.0-0.39"},{"rt":1464,"stimulus":"images/Dog/With_Backgrounds/difficulty8_image1.png","response":4,"category":"Dog","background_difficulty":"8","image_path":"images/Dog/With_Backgrounds/difficulty8_image1.png","trial_type":"image-button-response","trial_index":42,"time_elapsed":77576,"internal_node_id":"0.0-2.0-0.40"},{"rt":2250,"stimulus":"images/Broccoli/With_Backgrounds/difficulty2_image2.png","response":1,"category":"Broccoli","background_difficulty":"2","image_path":"images/Broccoli/With_Backgrounds/difficulty2_image2.png","trial_type":"image-button-response","trial_index":43,"time_elapsed":79827,"internal_node_id":"0.0-2.0-0.41"},{"rt":1648,"stimulus":"images/Dog/With_Backgrounds/difficulty0_image2.png","response":4,"category":"Dog","background_difficulty":"0","image_path":"images/Dog/With_Backgrounds/difficulty0_image2.png","trial_type":"image-button-response","trial_index":44,"time_elapsed":81476,"internal_node_id":"0.0-2.0-0.42"},{"rt":1666,"stimulus":"images/Tree/With_Backgrounds/difficulty1_image4.png","response":6,"category":"Tree","background_difficulty":"1","image_path":"images/Tree/With_Backgrounds/difficulty1_image4.png","trial_type":"image-button-response","trial_index":45,"time_elapsed":83143,"internal_node_id":"0.0-2.0-0.43"},{"rt":1515,"stimulus":"images/Other/With_Backgrounds/difficulty3_image3.png","response":7,"category":"Other","background_difficulty":"3","image_path":"images/Other/With_Backgrounds/difficulty3_image3.png","trial_type":"image-button-response","trial_index":46,"time_elapsed":84659,"internal_node_id":"0.0-2.0-0.44"},{"rt":1983,"stimulus":"images/Dog/With_Backgrounds/difficulty3_image0.png","response":4,"category":"Dog","background_difficulty":"3","image_path":"images/Dog/With_Backgrounds/difficulty3_image0.png","trial_type":"image-button-response","trial_index":47,"time_elapsed":86642,"internal_node_id":"0.0-2.0-0.45"},{"rt":1463,"stimulus":"images/Human/With_Backgrounds/difficulty4_image6.png","response":5,"category":"Human","background_difficulty":"4","image_path":"images/Human/With_Backgrounds/difficulty4_image6.png","trial_type":"image-button-response","trial_index":48,"time_elapsed":88106,"internal_node_id":"0.0-2.0-0.46"},{"rt":1315,"stimulus":"images/Boat/With_Backgrounds/difficulty0_image9.png","response":0,"category":"Boat","background_difficulty":"0","image_path":"images/Boat/With_Backgrounds/difficulty0_image9.png","trial_type":"image-button-response","trial_index":49,"time_elapsed":89422,"internal_node_id":"0.0-2.0-0.47"},{"rt":1717,"stimulus":"images/Broccoli/With_Backgrounds/difficulty0_image1.png","response":1,"category":"Broccoli","background_difficulty":"0","image_path":"images/Broccoli/With_Backgrounds/difficulty0_image1.png","trial_type":"image-button-response","trial_index":50,"time_elapsed":91140,"internal_node_id":"0.0-2.0-0.48"},{"rt":2265,"stimulus":"images/Other/With_Backgrounds/difficulty0_image9.png","response":7,"category":"Other","background_difficulty":"0","image_path":"images/Other/With_Backgrounds/difficulty0_image9.png","trial_type":"image-button-response","trial_index":51,"time_elapsed":93406,"internal_node_id":"0.0-2.0-0.49"},{"rt":1831,"stimulus":"images/Broccoli/With_Backgrounds/difficulty1_image0.png","response":1,"category":"Broccoli","background_difficulty":"1","image_path":"images/Broccoli/With_Backgrounds/difficulty1_image0.png","trial_type":"image-button-response","trial_index":52,"time_elapsed":95237,"internal_node_id":"0.0-2.0-0.50"},{"rt":2065,"stimulus":"images/Cat/With_Backgrounds/difficulty2_image7.png","response":3,"category":"Cat","background_difficulty":"2","image_path":"images/Cat/With_Backgrounds/difficulty2_image7.png","trial_type":"image-button-response","trial_index":53,"time_elapsed":97303,"internal_node_id":"0.0-2.0-0.51"},{"rt":1482,"stimulus":"images/Car/With_Backgrounds/difficulty5_image4.png","response":2,"category":"Car","background_difficulty":"5","image_path":"images/Car/With_Backgrounds/difficulty5_image4.png","trial_type":"image-button-response","trial_index":54,"time_elapsed":98786,"internal_node_id":"0.0-2.0-0.52"},{"rt":1931,"stimulus":"images/Car/With_Backgrounds/difficulty0_image7.png","response":2,"category":"Car","background_difficulty":"0","image_path":"images/Car/With_Backgrounds/difficulty0_image7.png","trial_type":"image-button-response","trial_index":55,"time_elapsed":100718,"internal_node_id":"0.0-2.0-0.53"},{"rt":1684,"stimulus":"images/Boat/With_Backgrounds/difficulty3_image7.png","response":0,"category":"Boat","background_difficulty":"3","image_path":"images/Boat/With_Backgrounds/difficulty3_image7.png","trial_type":"image-button-response","trial_index":56,"time_elapsed":102403,"internal_node_id":"0.0-2.0-0.54"},{"rt":1364,"stimulus":"images/Boat/With_Backgrounds/difficulty8_image3.png","response":0,"category":"Boat","background_difficulty":"8","image_path":"images/Boat/With_Backgrounds/difficulty8_image3.png","trial_type":"image-button-response","trial_index":57,"time_elapsed":103768,"internal_node_id":"0.0-2.0-0.55"},{"rt":1516,"stimulus":"images/Dog/With_Backgrounds/difficulty4_image7.png","response":4,"category":"Dog","background_difficulty":"4","image_path":"images/Dog/With_Backgrounds/difficulty4_image7.png","trial_type":"image-button-response","trial_index":58,"time_elapsed":105284,"internal_node_id":"0.0-2.0-0.56"},{"rt":1682,"stimulus":"images/Broccoli/With_Backgrounds/difficulty3_image7.png","response":1,"category":"Broccoli","background_difficulty":"3","image_path":"images/Broccoli/With_Backgrounds/difficulty3_image7.png","trial_type":"image-button-response","trial_index":59,"time_elapsed":106967,"internal_node_id":"0.0-2.0-0.57"},{"rt":1514,"stimulus":"images/Cat/With_Backgrounds/difficulty0_image8.png","response":3,"category":"Cat","background_difficulty":"0","image_path":"images/Cat/With_Backgrounds/difficulty0_image8.png","trial_type":"image-button-response","trial_index":60,"time_elapsed":108482,"internal_node_id":"0.0-2.0-0.58"},{"rt":1634,"stimulus":"images/Tree/With_Backgrounds/difficulty5_image1.png","response":6,"category":"Tree","background_difficulty":"5","image_path":"images/Tree/With_Backgrounds/difficulty5_image1.png","trial_type":"image-button-response","trial_index":61,"time_elapsed":110117,"internal_node_id":"0.0-2.0-0.59"},{"rt":1663,"stimulus":"images/Boat/With_Backgrounds/difficulty7_image6.png","response":0,"category":"Boat","background_difficulty":"7","image_path":"images/Boat/With_Backgrounds/difficulty7_image6.png","trial_type":"image-button-response","trial_index":62,"time_elapsed":111781,"internal_node_id":"0.0-2.0-0.60"},{"rt":1859,"stimulus":"images/Car/With_Backgrounds/difficulty3_image9.png","response":2,"category":"Car","background_difficulty":"3","image_path":"images/Car/With_Backgrounds/difficulty3_image9.png","trial_type":"image-button-response","trial_index":63,"time_elapsed":113642,"internal_node_id":"0.0-2.0-0.61"},{"rt":1321,"stimulus":"images/Human/With_Backgrounds/difficulty2_image9.png","response":5,"category":"Human","background_difficulty":"2","image_path":"images/Human/With_Backgrounds/difficulty2_image9.png","trial_type":"image-button-response","trial_index":64,"time_elapsed":114964,"internal_node_id":"0.0-2.0-0.62"},{"rt":1566,"stimulus":"images/Other/With_Backgrounds/difficulty7_image7.png","response":7,"category":"Other","background_difficulty":"7","image_path":"images/Other/With_Backgrounds/difficulty7_image7.png","trial_type":"image-button-response","trial_index":65,"time_elapsed":116532,"internal_node_id":"0.0-2.0-0.63"},{"rt":1431,"stimulus":"images/Broccoli/With_Backgrounds/difficulty7_image8.png","response":1,"category":"Broccoli","background_difficulty":"7","image_path":"images/Broccoli/With_Backgrounds/difficulty7_image8.png","trial_type":"image-button-response","trial_index":66,"time_elapsed":117964,"internal_node_id":"0.0-2.0-0.64"},{"rt":1982,"stimulus":"images/Cat/With_Backgrounds/difficulty3_image2.png","response":3,"category":"Cat","background_difficulty":"3","image_path":"images/Cat/With_Backgrounds/difficulty3_image2.png","trial_type":"image-button-response","trial_index":67,"time_elapsed":119935,"internal_node_id":"0.0-2.0-0.65"},{"rt":1564,"stimulus":"images/Tree/With_Backgrounds/difficulty4_image6.png","response":6,"category":"Tree","background_difficulty":"4","image_path":"images/Tree/With_Backgrounds/difficulty4_image6.png","trial_type":"image-button-response","trial_index":68,"time_elapsed":121500,"internal_node_id":"0.0-2.0-0.66"},{"rt":1464,"stimulus":"images/Broccoli/With_Backgrounds/difficulty4_image9.png","response":1,"category":"Broccoli","background_difficulty":"4","image_path":"images/Broccoli/With_Backgrounds/difficulty4_image9.png","trial_type":"image-button-response","trial_index":69,"time_elapsed":122965,"internal_node_id":"0.0-2.0-0.67"},{"rt":2604,"stimulus":"images/Other/With_Backgrounds/difficulty8_image1.png","response":7,"category":"Other","background_difficulty":"8","image_path":"images/Other/With_Backgrounds/difficulty8_image1.png","trial_type":"image-button-response","trial_index":70,"time_elapsed":125570,"internal_node_id":"0.0-2.0-0.68"},{"rt":1695,"stimulus":"images/Car/With_Backgrounds/difficulty6_image8.png","response":2,"category":"Car","background_difficulty":"6","image_path":"images/Car/With_Backgrounds/difficulty6_image8.png","trial_type":"image-button-response","trial_index":71,"time_elapsed":127266,"internal_node_id":"0.0-2.0-0.69"},{"rt":1631,"stimulus":"images/Tree/With_Backgrounds/difficulty3_image3.png","response":6,"category":"Tree","background_difficulty":"3","image_path":"images/Tree/With_Backgrounds/difficulty3_image3.png","trial_type":"image-button-response","trial_index":72,"time_elapsed":128899,"internal_node_id":"0.0-2.0-0.70"},{"rt":1482,"stimulus":"images/Cat/With_Backgrounds/difficulty1_image6.png","response":3,"category":"Cat","background_difficulty":"1","image_path":"images/Cat/With_Backgrounds/difficulty1_image6.png","trial_type":"image-button-response","trial_index":73,"time_elapsed":130382,"internal_node_id":"0.0-2.0-0.71"},{"rt":1463,"stimulus":["<h2>Press the button below to end experiment.</h2><p>Thank you for participating!</p>"],"response":0,"trial_type":"html-button-response","trial_index":74,"time_elapsed":131846,"internal_node_id":"0.0-3.0"}]