[{"success":true,"timeout":false,"failed_images":[],"failed_audio":[],"failed_video":[],"trial_type":"preload","trial_index":0,"time_elapsed":1227,"internal_node_id":"0.0-0.0"},{"rt":15078,"stimulus":["<h2>Noisy background image classification</h2><p>In this experiment you will briefly see images on top of colored squares of various sizes.</p><p>Your task is to report what each image is, selecting \"None of the Above\" if none of the given options are correct.</p> <p>The possible options are <strong>Boat</strong>, <strong>Broccoli</strong>, <strong>Car</strong>, <strong>Cat</strong>, <strong>Dog</strong>, <strong>Human</strong>, <strong>Tree</strong>, and <strong>None of the Above</strong>"],"response":0,"trial_type":"html-button-response","trial_index":1,"time_elapsed":16309,"internal_node_id":"0.0-1.0"},{"rt":3236,"stimulus":"images/Tree/With_Backgrounds/difficulty3_image5.png","response":6,"category":"Tree","background_difficulty":"3","image_path":"images/Tree/With_Backgrounds/difficulty3_image5.png","trial_type":"image-button-response","trial_index":2,"time_elapsed":19550,"internal_node_id":"0.0-2.0-0.0"},{"rt":3319,"stimulus":"images/Other/With_Backgrounds/difficulty0_image5.png","response":7,"category":"Other","background_difficulty":"0","image_path":"images/Other/With_Backgrounds/difficulty0_image5.png","trial_type":"image-button-response","trial_index":3,"time_elapsed":22871,"internal_node_id":"0.0-2.0-0.1"},{"rt":1492,"stimulus":"images/Boat/With_Backgrounds/difficulty7_image1.png","response":0,"category":"Boat","background_difficulty":"7","image_path":"images/Boat/With_Backgrounds/difficulty7_image1.png","trial_type":"image-button-response","trial_index":4,"time_elapsed":24364,"internal_node_id":"0.0-2.0-0.2"},{"rt":1279,"stimulus":"images/Cat/With_Backgrounds/difficulty5_image1.png","response":3,"category":"Cat","background_difficulty":"5","image_path":"images/Cat/With_Backgrounds/difficulty5_image1.png","trial_type":"image-button-response","trial_index":5,"time_elapsed":25645,"internal_node_id":"0.0-2.0-0.3"},{"rt":1672,"stimulus":"images/Human/With_Backgrounds/difficulty0_image4.png","response":5,"category":"Human","background_difficulty":"0","image_path":"images/Human/With_Backgrounds/difficulty0_image4.png","trial_type":"image-button-response","trial_index":6,"time_elapsed":27320,"internal_node_id":"0.0-2.0-0.4"},{"rt":1521,"stimulus":"images/Broccoli/With_Backgrounds/difficulty3_image0.png","response":1,"category":"Broccoli","background_difficulty":"3","image_path":"images/Broccoli/With_Backgrounds/difficulty3_image0.png","trial_type":"image-button-response","trial_index":7,"time_elapsed":28844,"internal_node_id":"0.0-2.0-0.5"},{"rt":1109,"stimulus":"images/Car/With_Backgrounds/difficulty2_image1.png","response":2,"category":"Car","background_difficulty":"2","image_path":"images/Car/With_Backgrounds/difficulty2_image1.png","trial_type":"image-button-response","trial_index":8,"time_elapsed":29956,"internal_node_id":"0.0-2.0-0.6"},{"rt":1015,"stimulus":"images/Dog/With_Backgrounds/difficulty0_image6.png","response":4,"category":"Dog","background_difficulty":"0","image_path":"images/Dog/With_Backgrounds/difficulty0_image6.png","trial_type":"image-button-response","trial_index":9,"time_elapsed":30972,"internal_node_id":"0.0-2.0-0.7"},{"rt":880,"stimulus":"images/Dog/With_Backgrounds/difficulty2_image3.png","response":4,"category":"Dog","background_difficulty":"2","image_path":"images/Dog/With_Backgrounds/difficulty2_image3.png","trial_type":"image-button-response","trial_index":10,"time_elapsed":31855,"internal_node_id":"0.0-2.0-0.8"},{"rt":1204,"stimulus":"images/Broccoli/With_Backgrounds/difficulty5_image3.png","response":1,"category":"Broccoli","background_difficulty":"5","image_path":"images/Broccoli/With_Backgrounds/difficulty5_image3.png","trial_type":"image-button-response","trial_index":11,"time_elapsed":33061,"internal_node_id":"0.0-2.0-0.9"},{"rt":1596,"stimulus":"images/Tree/With_Backgrounds/difficulty5_image3.png","response":6,"category":"Tree","background_difficulty":"5","image_path":"images/Tree/With_Backgrounds/difficulty5_image3.png","trial_type":"image-button-response","trial_index":12,"time_elapsed":34660,"internal_node_id":"0.0-2.0-0.10"},{"rt":1399,"stimulus":"images/Cat/With_Backgrounds/difficulty1_image7.png","response":3,"category":"Cat","background_difficulty":"1","image_path":"images/Cat/With_Backgrounds/difficulty1_image7.png","trial_type":"image-button-response","trial_index":13,"time_elapsed":36059,"internal_node_id":"0.0-2.0-0.11"},{"rt":1696,"stimulus":"images/Broccoli/With_Backgrounds/difficulty7_image7.png","response":1,"category":"Broccoli","background_difficulty":"7","image_path":"images/Broccoli/With_Backgrounds/difficulty7_image7.png","trial_type":"image-button-response","trial_index":14,"time_elapsed":37757,"internal_node_id":"0.0-2.0-0.12"},{"rt":1333,"stimulus":"images/Tree/With_Backgrounds/difficulty7_image0.png","response":6,"category":"Tree","background_difficulty":"7","image_path":"images/Tree/With_Backgrounds/difficulty7_image0.png","trial_type":"image-button-response","trial_index":15,"time_elapsed":39092,"internal_node_id":"0.0-2.0-0.13"},{"rt":2278,"stimulus":"images/Other/With_Backgrounds/difficulty5_image1.png","response":7,"category":"Other","background_difficulty":"5","image_path":"images/Other/With_Backgrounds/difficulty5_image1.png","trial_type":"image-button-response","trial_index":16,"time_elapsed":41372,"internal_node_id":"0.0-2.0-0.14"},{"rt":1869,"stimulus":"images/Boat/With_Backgrounds/difficulty4_image9.png","response":0,"category":"Boat","background_difficulty":"4","image_path":"images/Boat/With_Backgrounds/difficulty4_image9.png","trial_type":"image-button-response","trial_index":17,"time_elapsed":43243,"internal_node_id":"0.0-2.0-0.15"},{"rt":1089,"stimulus":"images/Human/With_Backgrounds/difficulty1_image5.png","response":5,"category":"Human","background_difficulty":"1","image_path":"images/Human/With_Backgrounds/difficulty1_image5.png","trial_type":"image-button-response","trial_index":18,"time_elapsed":44334,"internal_node_id":"0.0-2.0-0.16"},{"rt":2557,"stimulus":"images/Other/With_Backgrounds/difficulty1_image3.png","response":7,"category":"Other","background_difficulty":"1","image_path":"images/Other/With_Backgrounds/difficulty1_image3.png","trial_type":"image-button-response","trial_index":19,"time_elapsed":46893,"internal_node_id":"0.0-2.0-0.17"},{"rt":1799,"stimulus":"images/Boat/With_Backgrounds/difficulty1_image5.png","response":0,"category":"Boat","background_difficulty":"1","image_path":"images/Boat/With_Backgrounds/difficulty1_image5.png","trial_type":"image-button-response","trial_index":20,"time_elapsed":48694,"internal_node_id":"0.0-2.0-0.18"},{"rt":1165,"stimulus":"images/Human/With_Backgrounds/difficulty4_image2.png","response":5,"category":"Human","background_difficulty":"4","image_path":"images/Human/With_Backgrounds/difficulty4_image2.png","trial_type":"image-button-response","trial_index":21,"time_elapsed":49861,"internal_node_id":"0.0-2.0-0.19"},{"rt":1301,"stimulus":"images/Boat/With_Backgrounds/difficulty0_image3.png","response":0,"category":"Boat","background_difficulty":"0","image_path":"images/Boat/With_Backgrounds/difficulty0_image3.png","trial_type":"image-button-response","trial_index":22,"time_elapsed":51164,"internal_node_id":"0.0-2.0-0.20"},{"rt":1463,"stimulus":"images/Broccoli/With_Backgrounds/difficulty0_image9.png","response":1,"category":"Broccoli","background_difficulty":"0","image_path":"images/Broccoli/With_Backgrounds/difficulty0_image9.png","trial_type":"image-button-response","trial_index":23,"time_elapsed":52630,"internal_node_id":"0.0-2.0-0.21"},{"rt":1475,"stimulus":"images/Human/With_Backgrounds/difficulty6_image3.png","response":5,"category":"Human","background_difficulty":"6","image_path":"images/Human/With_Backgrounds/difficulty6_image3.png","trial_type":"image-button-response","trial_index":24,"time_elapsed":54108,"internal_node_id":"0.0-2.0-0.22"},{"rt":1567,"stimulus":"images/Other/With_Backgrounds/difficulty7_image0.png","response":7,"category":"Other","background_difficulty":"7","image_path":"images/Other/With_Backgrounds/difficulty7_image0.png","trial_type":"image-button-response","trial_index":25,"time_elapsed":55676,"internal_node_id":"0.0-2.0-0.23"},{"rt":1200,"stimulus":"images/Car/With_Backgrounds/difficulty7_image3.png","response":2,"category":"Car","background_difficulty":"7","image_path":"images/Car/With_Backgrounds/difficulty7_image3.png","trial_type":"image-button-response","trial_index":26,"time_elapsed":56878,"internal_node_id":"0.0-2.0-0.24"},{"rt":1213,"stimulus":"images/Human/With_Backgrounds/difficulty8_image1.png","response":5,"category":"Human","background_difficulty":"8","image_path":"images/Human/With_Backgrounds/difficulty8_image1.png","trial_type":"image-button-response","trial_index":27,"time_elapsed":58094,"internal_node_id":"0.0-2.0-0.25"},{"rt":1059,"stimulus":"images/Other/With_Backgrounds/difficulty2_image2.png","response":7,"category":"Other","background_difficulty":"2","image_path":"images/Other/With_Backgrounds/difficulty2_image2.png","trial_type":"image-button-response","trial_index":28,"time_elapsed":59156,"internal_node_id":"0.0-2.0-0.26"},{"rt":1214,"stimulus":"images/Broccoli/With_Backgrounds/difficulty4_image5.png","response":1,"category":"Broccoli","background_difficulty":"4","image_path":"images/Broccoli/With_Backgrounds/difficulty4_image5.png","trial_type":"image-button-response","trial_index":29,"time_elapsed":60373,"internal_node_id":"0.0-2.0-0.27"},{"rt":1182,"stimulus":"images/Tree/With_Backgrounds/difficulty6_image4.png","response":6,"category":"Tree","background_difficulty":"6","image_path":"images/Tree/With_Backgrounds/difficulty6_image4.png","trial_type":"image-button-response","trial_index":30,"time_elapsed":61558,"internal_node_id":"0.0-2.0-0.28"},{"rt":1087,"stimulus":"images/Other/With_Backgrounds/difficulty4_image4.png","response":7,"category":"Other","background_difficulty":"4","image_path":"images/Other/With_Backgrounds/difficulty4_image4.png","trial_type":"image-button-response","trial_index":31,"time_elapsed":62647,"internal_node_id":"0.0-2.0-0.29"},{"rt":1564,"stimulus":"images/Cat/With_Backgrounds/difficulty0_image3.png","response":3,"category":"Cat","background_difficulty":"0","image_path":"images/Cat/With_Backgrounds/difficulty0_image3.png","trial_type":"image-button-response","trial_index":32,"time_elapsed":64214,"internal_node_id":"0.0-2.0-0.30"},{"rt":877,"stimulus":"images/Cat/With_Backgrounds/difficulty7_image6.png","response":3,"category":"Cat","background_difficulty":"7","image_path":"images/Cat/With_Backgrounds/difficulty7_image6.png","trial_type":"image-button-response","trial_index":33,"time_elapsed":65093,"internal_node_id":"0.0-2.0-0.31"},{"rt":1165,"stimulus":"images/Car/With_Backgrounds/difficulty5_image2.png","response":2,"category":"Car","background_difficulty":"5","image_path":"images/Car/With_Backgrounds/difficulty5_image2.png","trial_type":"image-button-response","trial_index":34,"time_elapsed":66261,"internal_node_id":"0.0-2.0-0.32"},{"rt":1262,"stimulus":"images/Broccoli/With_Backgrounds/difficulty2_image1.png","response":1,"category":"Broccoli","background_difficulty":"2","image_path":"images/Broccoli/With_Backgrounds/difficulty2_image1.png","trial_type":"image-button-response","trial_index":35,"time_elapsed":67525,"internal_node_id":"0.0-2.0-0.33"},{"rt":1029,"stimulus":"images/Human/With_Backgrounds/difficulty3_image0.png","response":5,"category":"Human","background_difficulty":"3","image_path":"images/Human/With_Backgrounds/difficulty3_image0.png","trial_type":"image-button-response","trial_index":36,"time_elapsed":68557,"internal_node_id":"0.0-2.0-0.34"},{"rt":1197,"stimulus":"images/Broccoli/With_Backgrounds/difficulty6_image4.png","response":1,"category":"Broccoli","background_difficulty":"6","image_path":"images/Broccoli/With_Backgrounds/difficulty6_image4.png","trial_type":"image-button-response","trial_index":37,"time_elapsed":69756,"internal_node_id":"0.0-2.0-0.35"},{"rt":1080,"stimulus":"images/Human/With_Backgrounds/difficulty5_image7.png","response":5,"category":"Human","background_difficulty":"5","image_path":"images/Human/With_Backgrounds/difficulty5_image7.png","trial_type":"image-button-response","trial_index":38,"time_elapsed":70838,"internal_node_id":"0.0-2.0-0.36"},{"rt":1694,"stimulus":"images/Car/With_Backgrounds/difficulty3_image8.png","response":2,"category":"Car","background_difficulty":"3","image_path":"images/Car/With_Backgrounds/difficulty3_image8.png","trial_type":"image-button-response","trial_index":39,"time_elapsed":72534,"internal_node_id":"0.0-2.0-0.37"},{"rt":1131,"stimulus":"images/Tree/With_Backgrounds/difficulty0_image7.png","response":6,"category":"Tree","background_difficulty":"0","image_path":"images/Tree/With_Backgrounds/difficulty0_image7.png","trial_type":"image-button-response","trial_index":40,"time_elapsed":73669,"internal_node_id":"0.0-2.0-0.38"},{"rt":1118,"stimulus":"images/Other/With_Backgrounds/difficulty3_image7.png","response":7,"category":"Other","background_difficulty":"3","image_path":"images/Other/With_Backgrounds/difficulty3_image7.png","trial_type":"image-button-response","trial_index":41,"time_elapsed":74789,"internal_node_id":"0.0-2.0-0.39"},{"rt":1025,"stimulus":"images/Tree/With_Backgrounds/difficulty4_image1.png","response":6,"category":"Tree","background_difficulty":"4","image_path":"images/Tree/With_Backgrounds/difficulty4_image1.png","trial_type":"image-button-response","trial_index":42,"time_elapsed":75816,"internal_node_id":"0.0-2.0-0.40"},{"rt":1043,"stimulus":"images/Dog/With_Backgrounds/difficulty3_image5.png","response":4,"category":"Dog","background_difficulty":"3","image_path":"images/Dog/With_Backgrounds/difficulty3_image5.png","trial_type":"image-button-response","trial_index":43,"time_elapsed":76861,"internal_node_id":"0.0-2.0-0.41"},{"rt":1807,"stimulus":"images/Cat/With_Backgrounds/difficulty6_image5.png","response":3,"category":"Cat","background_difficulty":"6","image_path":"images/Cat/With_Backgrounds/difficulty6_image5.png","trial_type":"image-button-response","trial_index":44,"time_elapsed":78670,"internal_node_id":"0.0-2.0-0.42"},{"rt":1317,"stimulus":"images/Dog/With_Backgrounds/difficulty4_image4.png","response":4,"category":"Dog","background_difficulty":"4","image_path":"images/Dog/With_Backgrounds/difficulty4_image4.png","trial_type":"image-button-response","trial_index":45,"time_elapsed":79988,"internal_node_id":"0.0-2.0-0.43"},{"rt":1104,"stimulus":"images/Dog/With_Backgrounds/difficulty8_image7.png","response":4,"category":"Dog","background_difficulty":"8","image_path":"images/Dog/With_Backgrounds/difficulty8_image7.png","trial_type":"image-button-response","trial_index":46,"time_elapsed":81095,"internal_node_id":"0.0-2.0-0.44"},{"rt":1109,"stimulus":"images/Car/With_Backgrounds/difficulty6_image4.png","response":2,"category":"Car","background_difficulty":"6","image_path":"images/Car/With_Backgrounds/difficulty6_image4.png","trial_type":"image-button-response","trial_index":47,"time_elapsed":82206,"internal_node_id":"0.0-2.0-0.45"},{"rt":1678,"stimulus":"images/Other/With_Backgrounds/difficulty6_image9.png","response":7,"category":"Other","background_difficulty":"6","image_path":"images/Other/With_Backgrounds/difficulty6_image9.png","trial_type":"image-button-response","trial_index":48,"time_elapsed":83886,"internal_node_id":"0.0-2.0-0.46"},{"rt":1285,"stimulus":"images/Cat/With_Backgrounds/difficulty2_image9.png","response":3,"category":"Cat","background_difficulty":"2","image_path":"images/Cat/With_Backgrounds/difficulty2_image9.png","trial_type":"image-button-response","trial_index":49,"time_elapsed":85174,"internal_node_id":"0.0-2.0-0.47"},{"rt":1094,"stimulus":"images/Broccoli/With_Backgrounds/difficulty8_image6.png","response":1,"category":"Broccoli","background_difficulty":"8","image_path":"images/Broccoli/With_Backgrounds/difficulty8_image6.png","trial_type":"image-button-response","trial_index":50,"time_elapsed":86270,"internal_node_id":"0.0-2.0-0.48"},{"rt":1441,"stimulus":"images/Car/With_Backgrounds/difficulty0_image7.png","response":2,"category":"Car","background_difficulty":"0","image_path":"images/Car/With_Backgrounds/difficulty0_image7.png","trial_type":"image-button-response","trial_index":51,"time_elapsed":87713,"internal_node_id":"0.0-2.0-0.49"},{"rt":938,"stimulus":"images/Dog/With_Backgrounds/difficulty7_image0.png","response":4,"category":"Dog","background_difficulty":"7","image_path":"images/Dog/With_Backgrounds/difficulty7_image0.png","trial_type":"image-button-response","trial_index":52,"time_elapsed":88654,"internal_node_id":"0.0-2.0-0.50"},{"rt":1008,"stimulus":"images/Tree/With_Backgrounds/difficulty8_image9.png","response":6,"category":"Tree","background_difficulty":"8","image_path":"images/Tree/With_Backgrounds/difficulty8_image9.png","trial_type":"image-button-response","trial_index":53,"time_elapsed":89664,"internal_node_id":"0.0-2.0-0.51"},{"rt":1227,"stimulus":"images/Car/With_Backgrounds/difficulty1_image0.png","response":2,"category":"Car","background_difficulty":"1","image_path":"images/Car/With_Backgrounds/difficulty1_image0.png","trial_type":"image-button-response","trial_index":54,"time_elapsed":90893,"internal_node_id":"0.0-2.0-0.52"},{"rt":1030,"stimulus":"images/Cat/With_Backgrounds/difficulty8_image2.png","response":3,"category":"Cat","background_difficulty":"8","image_path":"images/Cat/With_Backgrounds/difficulty8_image2.png","trial_type":"image-button-response","trial_index":55,"time_elapsed":91925,"internal_node_id":"0.0-2.0-0.53"},{"rt":969,"stimulus":"images/Dog/With_Backgrounds/difficulty5_image2.png","response":4,"category":"Dog","background_difficulty":"5","image_path":"images/Dog/With_Backgrounds/difficulty5_image2.png","trial_type":"image-button-response","trial_index":56,"time_elapsed":92896,"internal_node_id":"0.0-2.0-0.54"},{"rt":1146,"stimulus":"images/Other/With_Backgrounds/difficulty8_image6.png","response":7,"category":"Other","background_difficulty":"8","image_path":"images/Other/With_Backgrounds/difficulty8_image6.png","trial_type":"image-button-response","trial_index":57,"time_elapsed":94045,"internal_node_id":"0.0-2.0-0.55"},{"rt":1038,"stimulus":"images/Dog/With_Backgrounds/difficulty6_image8.png","response":4,"category":"Dog","background_difficulty":"6","image_path":"images/Dog/With_Backgrounds/difficulty6_image8.png","trial_type":"image-button-response","trial_index":58,"time_elapsed":95085,"internal_node_id":"0.0-2.0-0.56"},{"rt":1158,"stimulus":"images/Boat/With_Backgrounds/difficulty3_image0.png","response":0,"category":"Boat","background_difficulty":"3","image_path":"images/Boat/With_Backgrounds/difficulty3_image0.png","trial_type":"image-button-response","trial_index":59,"time_elapsed":96244,"internal_node_id":"0.0-2.0-0.57"},{"rt":1050,"stimulus":"images/Tree/With_Backgrounds/difficulty1_image8.png","response":6,"category":"Tree","background_difficulty":"1","image_path":"images/Tree/With_Backgrounds/difficulty1_image8.png","trial_type":"image-button-response","trial_index":60,"time_elapsed":97296,"internal_node_id":"0.0-2.0-0.58"},{"rt":883,"stimulus":"images/Dog/With_Backgrounds/difficulty1_image1.png","response":4,"category":"Dog","background_difficulty":"1","image_path":"images/Dog/With_Backgrounds/difficulty1_image1.png","trial_type":"image-button-response","trial_index":61,"time_elapsed":98181,"internal_node_id":"0.0-2.0-0.59"},{"rt":1015,"stimulus":"images/Car/With_Backgrounds/difficulty8_image5.png","response":2,"category":"Car","background_difficulty":"8","image_path":"images/Car/With_Backgrounds/difficulty8_image5.png","trial_type":"image-button-response","trial_index":62,"time_elapsed":99197,"internal_node_id":"0.0-2.0-0.60"},{"rt":1233,"stimulus":"images/Boat/With_Backgrounds/difficulty2_image8.png","response":0,"category":"Boat","background_difficulty":"2","image_path":"images/Boat/With_Backgrounds/difficulty2_image8.png","trial_type":"image-button-response","trial_index":63,"time_elapsed":100432,"internal_node_id":"0.0-2.0-0.61"},{"rt":1052,"stimulus":"images/Tree/With_Backgrounds/difficulty2_image6.png","response":6,"category":"Tree","background_difficulty":"2","image_path":"images/Tree/With_Backgrounds/difficulty2_image6.png","trial_type":"image-button-response","trial_index":64,"time_elapsed":101487,"internal_node_id":"0.0-2.0-0.62"},{"rt":1724,"stimulus":"images/Boat/With_Backgrounds/difficulty5_image6.png","response":0,"category":"Boat","background_difficulty":"5","image_path":"images/Boat/With_Backgrounds/difficulty5_image6.png","trial_type":"image-button-response","trial_index":65,"time_elapsed":103213,"internal_node_id":"0.0-2.0-0.63"},{"rt":1166,"stimulus":"images/Cat/With_Backgrounds/difficulty3_image4.png","response":3,"category":"Cat","background_difficulty":"3","image_path":"images/Cat/With_Backgrounds/difficulty3_image4.png","trial_type":"image-button-response","trial_index":66,"time_elapsed":104381,"internal_node_id":"0.0-2.0-0.64"},{"rt":1014,"stimulus":"images/Human/With_Backgrounds/difficulty7_image9.png","response":5,"category":"Human","background_difficulty":"7","image_path":"images/Human/With_Backgrounds/difficulty7_image9.png","trial_type":"image-button-response","trial_index":67,"time_elapsed":105396,"internal_node_id":"0.0-2.0-0.65"},{"rt":1303,"stimulus":"images/Car/With_Backgrounds/difficulty4_image9.png","response":2,"category":"Car","background_difficulty":"4","image_path":"images/Car/With_Backgrounds/difficulty4_image9.png","trial_type":"image-button-response","trial_index":68,"time_elapsed":106700,"internal_node_id":"0.0-2.0-0.66"},{"rt":1273,"stimulus":"images/Broccoli/With_Backgrounds/difficulty1_image8.png","response":1,"category":"Broccoli","background_difficulty":"1","image_path":"images/Broccoli/With_Backgrounds/difficulty1_image8.png","trial_type":"image-button-response","trial_index":69,"time_elapsed":107976,"internal_node_id":"0.0-2.0-0.67"},{"rt":1254,"stimulus":"images/Cat/With_Backgrounds/difficulty4_image0.png","response":3,"category":"Cat","background_difficulty":"4","image_path":"images/Cat/With_Backgrounds/difficulty4_image0.png","trial_type":"image-button-response","trial_index":70,"time_elapsed":109231,"internal_node_id":"0.0-2.0-0.68"},{"rt":909,"stimulus":"images/Human/With_Backgrounds/difficulty2_image8.png","response":5,"category":"Human","background_difficulty":"2","image_path":"images/Human/With_Backgrounds/difficulty2_image8.png","trial_type":"image-button-response","trial_index":71,"time_elapsed":110142,"internal_node_id":"0.0-2.0-0.69"},{"rt":990,"stimulus":"images/Boat/With_Backgrounds/difficulty6_image7.png","response":0,"category":"Boat","background_difficulty":"6","image_path":"images/Boat/With_Backgrounds/difficulty6_image7.png","trial_type":"image-button-response","trial_index":72,"time_elapsed":111133,"internal_node_id":"0.0-2.0-0.70"},{"rt":951,"stimulus":"images/Boat/With_Backgrounds/difficulty8_image2.png","response":0,"category":"Boat","background_difficulty":"8","image_path":"images/Boat/With_Backgrounds/difficulty8_image2.png","trial_type":"image-button-response","trial_index":73,"time_elapsed":112085,"internal_node_id":"0.0-2.0-0.71"},{"rt":1205,"stimulus":["<h2>Press the button below to end experiment.</h2><p>Thank you for participating!</p>"],"response":0,"trial_type":"html-button-response","trial_index":74,"time_elapsed":113292,"internal_node_id":"0.0-3.0"}]