[{"success":true,"timeout":false,"failed_images":[],"failed_audio":[],"failed_video":[],"trial_type":"preload","trial_index":0,"time_elapsed":3625,"internal_node_id":"0.0-0.0"},{"rt":5669,"stimulus":["<h2>Noisy background image classification</h2><p>In this experiment you will briefly see images on top of colored squares of various sizes.</p><p>Your task is to report what each image is, selecting \"None of the Above\" if none of the given options are correct.</p> <p>The possible options are <strong>Boat</strong>, <strong>Broccoli</strong>, <strong>Car</strong>, <strong>Cat</strong>, <strong>Dog</strong>, <strong>Human</strong>, <strong>Tree</strong>, and <strong>None of the Above</strong>"],"response":0,"trial_type":"html-button-response","trial_index":1,"time_elapsed":9295,"internal_node_id":"0.0-1.0"},{"rt":2318,"stimulus":"images/Human/With_Backgrounds/difficulty3_image6.png","response":5,"category":"Human","background_difficulty":"3","image_path":"images/Human/With_Backgrounds/difficulty3_image6.png","trial_type":"image-button-response","trial_index":2,"time_elapsed":11616,"internal_node_id":"0.0-2.0-0.0"},{"rt":3754,"stimulus":"images/Other/With_Backgrounds/difficulty0_image6.png","response":7,"category":"Other","background_difficulty":"0","image_path":"images/Other/With_Backgrounds/difficulty0_image6.png","trial_type":"image-button-response","trial_index":3,"time_elapsed":15372,"internal_node_id":"0.0-2.0-0.1"},{"rt":2241,"stimulus":"images/Boat/With_Backgrounds/difficulty1_image7.png","response":0,"category":"Boat","background_difficulty":"1","image_path":"images/Boat/With_Backgrounds/difficulty1_image7.png","trial_type":"image-button-response","trial_index":4,"time_elapsed":17615,"internal_node_id":"0.0-2.0-0.2"},{"rt":2559,"stimulus":"images/Other/With_Backgrounds/difficulty1_image4.png","response":7,"category":"Other","background_difficulty":"1","image_path":"images/Other/With_Backgrounds/difficulty1_image4.png","trial_type":"image-button-response","trial_index":5,"time_elapsed":20175,"internal_node_id":"0.0-2.0-0.3"},{"rt":1491,"stimulus":"images/Broccoli/With_Backgrounds/difficulty6_image5.png","response":1,"category":"Broccoli","background_difficulty":"6","image_path":"images/Broccoli/With_Backgrounds/difficulty6_image5.png","trial_type":"image-button-response","trial_index":6,"time_elapsed":21668,"internal_node_id":"0.0-2.0-0.4"},{"rt":1650,"stimulus":"images/Human/With_Backgrounds/difficulty5_image3.png","response":5,"category":"Human","background_difficulty":"5","image_path":"images/Human/With_Backgrounds/difficulty5_image3.png","trial_type":"image-button-response","trial_index":7,"time_elapsed":23320,"internal_node_id":"0.0-2.0-0.5"},{"rt":1580,"stimulus":"images/Broccoli/With_Backgrounds/difficulty2_image6.png","response":1,"category":"Broccoli","background_difficulty":"2","image_path":"images/Broccoli/With_Backgrounds/difficulty2_image6.png","trial_type":"image-button-response","trial_index":8,"time_elapsed":24902,"internal_node_id":"0.0-2.0-0.6"},{"rt":1140,"stimulus":"images/Broccoli/With_Backgrounds/difficulty3_image3.png","response":1,"category":"Broccoli","background_difficulty":"3","image_path":"images/Broccoli/With_Backgrounds/difficulty3_image3.png","trial_type":"image-button-response","trial_index":9,"time_elapsed":26044,"internal_node_id":"0.0-2.0-0.7"},{"rt":1357,"stimulus":"images/Cat/With_Backgrounds/difficulty2_image0.png","response":3,"category":"Cat","background_difficulty":"2","image_path":"images/Cat/With_Backgrounds/difficulty2_image0.png","trial_type":"image-button-response","trial_index":10,"time_elapsed":27402,"internal_node_id":"0.0-2.0-0.8"},{"rt":1209,"stimulus":"images/Car/With_Backgrounds/difficulty2_image0.png","response":2,"category":"Car","background_difficulty":"2","image_path":"images/Car/With_Backgrounds/difficulty2_image0.png","trial_type":"image-button-response","trial_index":11,"time_elapsed":28612,"internal_node_id":"0.0-2.0-0.9"},{"rt":1335,"stimulus":"images/Cat/With_Backgrounds/difficulty1_image9.png","response":3,"category":"Cat","background_difficulty":"1","image_path":"images/Cat/With_Backgrounds/difficulty1_image9.png","trial_type":"image-button-response","trial_index":12,"time_elapsed":29949,"internal_node_id":"0.0-2.0-0.10"},{"rt":1128,"stimulus":"images/Dog/With_Backgrounds/difficulty4_image4.png","response":4,"category":"Dog","background_difficulty":"4","image_path":"images/Dog/With_Backgrounds/difficulty4_image4.png","trial_type":"image-button-response","trial_index":13,"time_elapsed":31079,"internal_node_id":"0.0-2.0-0.11"},{"rt":1969,"stimulus":"images/Car/With_Backgrounds/difficulty6_image3.png","response":2,"category":"Car","background_difficulty":"6","image_path":"images/Car/With_Backgrounds/difficulty6_image3.png","trial_type":"image-button-response","trial_index":14,"time_elapsed":33049,"internal_node_id":"0.0-2.0-0.12"},{"rt":1103,"stimulus":"images/Broccoli/With_Backgrounds/difficulty5_image1.png","response":1,"category":"Broccoli","background_difficulty":"5","image_path":"images/Broccoli/With_Backgrounds/difficulty5_image1.png","trial_type":"image-button-response","trial_index":15,"time_elapsed":34154,"internal_node_id":"0.0-2.0-0.13"},{"rt":1458,"stimulus":"images/Cat/With_Backgrounds/difficulty3_image7.png","response":3,"category":"Cat","background_difficulty":"3","image_path":"images/Cat/With_Backgrounds/difficulty3_image7.png","trial_type":"image-button-response","trial_index":16,"time_elapsed":35613,"internal_node_id":"0.0-2.0-0.14"},{"rt":1778,"stimulus":"images/Cat/With_Backgrounds/difficulty5_image5.png","response":3,"category":"Cat","background_difficulty":"5","image_path":"images/Cat/With_Backgrounds/difficulty5_image5.png","trial_type":"image-button-response","trial_index":17,"time_elapsed":37393,"internal_node_id":"0.0-2.0-0.15"},{"rt":1280,"stimulus":"images/Broccoli/With_Backgrounds/difficulty1_image0.png","response":1,"category":"Broccoli","background_difficulty":"1","image_path":"images/Broccoli/With_Backgrounds/difficulty1_image0.png","trial_type":"image-button-response","trial_index":18,"time_elapsed":38674,"internal_node_id":"0.0-2.0-0.16"},{"rt":1691,"stimulus":"images/Tree/With_Backgrounds/difficulty8_image2.png","response":6,"category":"Tree","background_difficulty":"8","image_path":"images/Tree/With_Backgrounds/difficulty8_image2.png","trial_type":"image-button-response","trial_index":19,"time_elapsed":40367,"internal_node_id":"0.0-2.0-0.17"},{"rt":1451,"stimulus":"images/Dog/With_Backgrounds/difficulty7_image0.png","response":4,"category":"Dog","background_difficulty":"7","image_path":"images/Dog/With_Backgrounds/difficulty7_image0.png","trial_type":"image-button-response","trial_index":20,"time_elapsed":41819,"internal_node_id":"0.0-2.0-0.18"},{"rt":1209,"stimulus":"images/Broccoli/With_Backgrounds/difficulty7_image9.png","response":1,"category":"Broccoli","background_difficulty":"7","image_path":"images/Broccoli/With_Backgrounds/difficulty7_image9.png","trial_type":"image-button-response","trial_index":21,"time_elapsed":43030,"internal_node_id":"0.0-2.0-0.19"},{"rt":1229,"stimulus":"images/Cat/With_Backgrounds/difficulty6_image1.png","response":3,"category":"Cat","background_difficulty":"6","image_path":"images/Cat/With_Backgrounds/difficulty6_image1.png","trial_type":"image-button-response","trial_index":22,"time_elapsed":44260,"internal_node_id":"0.0-2.0-0.20"},{"rt":1742,"stimulus":"images/Boat/With_Backgrounds/difficulty7_image1.png","response":0,"category":"Boat","background_difficulty":"7","image_path":"images/Boat/With_Backgrounds/difficulty7_image1.png","trial_type":"image-button-response","trial_index":23,"time_elapsed":46004,"internal_node_id":"0.0-2.0-0.21"},{"rt":1649,"stimulus":"images/Tree/With_Backgrounds/difficulty1_image9.png","response":6,"category":"Tree","background_difficulty":"1","image_path":"images/Tree/With_Backgrounds/difficulty1_image9.png","trial_type":"image-button-response","trial_index":24,"time_elapsed":47655,"internal_node_id":"0.0-2.0-0.22"},{"rt":1989,"stimulus":"images/Car/With_Backgrounds/difficulty7_image6.png","response":2,"category":"Car","background_difficulty":"7","image_path":"images/Car/With_Backgrounds/difficulty7_image6.png","trial_type":"image-button-response","trial_index":25,"time_elapsed":49646,"internal_node_id":"0.0-2.0-0.23"},{"rt":1325,"stimulus":"images/Tree/With_Backgrounds/difficulty2_image0.png","response":6,"category":"Tree","background_difficulty":"2","image_path":"images/Tree/With_Backgrounds/difficulty2_image0.png","trial_type":"image-button-response","trial_index":26,"time_elapsed":50973,"internal_node_id":"0.0-2.0-0.24"},{"rt":1184,"stimulus":"images/Car/With_Backgrounds/difficulty8_image4.png","response":2,"category":"Car","background_difficulty":"8","image_path":"images/Car/With_Backgrounds/difficulty8_image4.png","trial_type":"image-button-response","trial_index":27,"time_elapsed":52158,"internal_node_id":"0.0-2.0-0.25"},{"rt":1537,"stimulus":"images/Human/With_Backgrounds/difficulty1_image5.png","response":5,"category":"Human","background_difficulty":"1","image_path":"images/Human/With_Backgrounds/difficulty1_image5.png","trial_type":"image-button-response","trial_index":28,"time_elapsed":53697,"internal_node_id":"0.0-2.0-0.26"},{"rt":1010,"stimulus":"images/Human/With_Backgrounds/difficulty6_image9.png","response":5,"category":"Human","background_difficulty":"6","image_path":"images/Human/With_Backgrounds/difficulty6_image9.png","trial_type":"image-button-response","trial_index":29,"time_elapsed":54709,"internal_node_id":"0.0-2.0-0.27"},{"rt":1408,"stimulus":"images/Boat/With_Backgrounds/difficulty2_image5.png","response":0,"category":"Boat","background_difficulty":"2","image_path":"images/Boat/With_Backgrounds/difficulty2_image5.png","trial_type":"image-button-response","trial_index":30,"time_elapsed":56118,"internal_node_id":"0.0-2.0-0.28"},{"rt":1148,"stimulus":"images/Human/With_Backgrounds/difficulty2_image8.png","response":5,"category":"Human","background_difficulty":"2","image_path":"images/Human/With_Backgrounds/difficulty2_image8.png","trial_type":"image-button-response","trial_index":31,"time_elapsed":57267,"internal_node_id":"0.0-2.0-0.29"},{"rt":1334,"stimulus":"images/Tree/With_Backgrounds/difficulty6_image1.png","response":6,"category":"Tree","background_difficulty":"6","image_path":"images/Tree/With_Backgrounds/difficulty6_image1.png","trial_type":"image-button-response","trial_index":32,"time_elapsed":58603,"internal_node_id":"0.0-2.0-0.30"},{"rt":1990,"stimulus":"images/Car/With_Backgrounds/difficulty0_image7.png","response":2,"category":"Car","background_difficulty":"0","image_path":"images/Car/With_Backgrounds/difficulty0_image7.png","trial_type":"image-button-response","trial_index":33,"time_elapsed":60595,"internal_node_id":"0.0-2.0-0.31"},{"rt":1283,"stimulus":"images/Dog/With_Backgrounds/difficulty8_image6.png","response":4,"category":"Dog","background_difficulty":"8","image_path":"images/Dog/With_Backgrounds/difficulty8_image6.png","trial_type":"image-button-response","trial_index":34,"time_elapsed":61879,"internal_node_id":"0.0-2.0-0.32"},{"rt":1026,"stimulus":"images/Cat/With_Backgrounds/difficulty7_image8.png","response":3,"category":"Cat","background_difficulty":"7","image_path":"images/Cat/With_Backgrounds/difficulty7_image8.png","trial_type":"image-button-response","trial_index":35,"time_elapsed":62907,"internal_node_id":"0.0-2.0-0.33"},{"rt":2207,"stimulus":"images/Car/With_Backgrounds/difficulty1_image2.png","response":2,"category":"Car","background_difficulty":"1","image_path":"images/Car/With_Backgrounds/difficulty1_image2.png","trial_type":"image-button-response","trial_index":36,"time_elapsed":65116,"internal_node_id":"0.0-2.0-0.34"},{"rt":1259,"stimulus":"images/Tree/With_Backgrounds/difficulty5_image4.png","response":6,"category":"Tree","background_difficulty":"5","image_path":"images/Tree/With_Backgrounds/difficulty5_image4.png","trial_type":"image-button-response","trial_index":37,"time_elapsed":66377,"internal_node_id":"0.0-2.0-0.35"},{"rt":1731,"stimulus":"images/Other/With_Backgrounds/difficulty5_image3.png","response":7,"category":"Other","background_difficulty":"5","image_path":"images/Other/With_Backgrounds/difficulty5_image3.png","trial_type":"image-button-response","trial_index":38,"time_elapsed":68109,"internal_node_id":"0.0-2.0-0.36"},{"rt":1510,"stimulus":"images/Other/With_Backgrounds/difficulty2_image8.png","response":7,"category":"Other","background_difficulty":"2","image_path":"images/Other/With_Backgrounds/difficulty2_image8.png","trial_type":"image-button-response","trial_index":39,"time_elapsed":69621,"internal_node_id":"0.0-2.0-0.37"},{"rt":1104,"stimulus":"images/Human/With_Backgrounds/difficulty0_image1.png","response":5,"category":"Human","background_difficulty":"0","image_path":"images/Human/With_Backgrounds/difficulty0_image1.png","trial_type":"image-button-response","trial_index":40,"time_elapsed":70727,"internal_node_id":"0.0-2.0-0.38"},{"rt":1159,"stimulus":"images/Broccoli/With_Backgrounds/difficulty0_image8.png","response":1,"category":"Broccoli","background_difficulty":"0","image_path":"images/Broccoli/With_Backgrounds/difficulty0_image8.png","trial_type":"image-button-response","trial_index":41,"time_elapsed":71887,"internal_node_id":"0.0-2.0-0.39"},{"rt":1267,"stimulus":"images/Human/With_Backgrounds/difficulty8_image2.png","response":5,"category":"Human","background_difficulty":"8","image_path":"images/Human/With_Backgrounds/difficulty8_image2.png","trial_type":"image-button-response","trial_index":42,"time_elapsed":73156,"internal_node_id":"0.0-2.0-0.40"},{"rt":1823,"stimulus":"images/Boat/With_Backgrounds/difficulty0_image2.png","response":0,"category":"Boat","background_difficulty":"0","image_path":"images/Boat/With_Backgrounds/difficulty0_image2.png","trial_type":"image-button-response","trial_index":43,"time_elapsed":74980,"internal_node_id":"0.0-2.0-0.41"},{"rt":1257,"stimulus":"images/Car/With_Backgrounds/difficulty5_image8.png","response":2,"category":"Car","background_difficulty":"5","image_path":"images/Car/With_Backgrounds/difficulty5_image8.png","trial_type":"image-button-response","trial_index":44,"time_elapsed":76238,"internal_node_id":"0.0-2.0-0.42"},{"rt":1550,"stimulus":"images/Boat/With_Backgrounds/difficulty6_image6.png","response":0,"category":"Boat","background_difficulty":"6","image_path":"images/Boat/With_Backgrounds/difficulty6_image6.png","trial_type":"image-button-response","trial_index":45,"time_elapsed":77789,"internal_node_id":"0.0-2.0-0.43"},{"rt":1185,"stimulus":"images/Human/With_Backgrounds/difficulty7_image4.png","response":5,"category":"Human","background_difficulty":"7","image_path":"images/Human/With_Backgrounds/difficulty7_image4.png","trial_type":"image-button-response","trial_index":46,"time_elapsed":78976,"internal_node_id":"0.0-2.0-0.44"},{"rt":1274,"stimulus":"images/Other/With_Backgrounds/difficulty4_image9.png","response":7,"category":"Other","background_difficulty":"4","image_path":"images/Other/With_Backgrounds/difficulty4_image9.png","trial_type":"image-button-response","trial_index":47,"time_elapsed":80251,"internal_node_id":"0.0-2.0-0.45"},{"rt":1264,"stimulus":"images/Other/With_Backgrounds/difficulty7_image5.png","response":7,"category":"Other","background_difficulty":"7","image_path":"images/Other/With_Backgrounds/difficulty7_image5.png","trial_type":"image-button-response","trial_index":48,"time_elapsed":81517,"internal_node_id":"0.0-2.0-0.46"},{"rt":1191,"stimulus":"images/Tree/With_Backgrounds/difficulty0_image8.png","response":6,"category":"Tree","background_difficulty":"0","image_path":"images/Tree/With_Backgrounds/difficulty0_image8.png","trial_type":"image-button-response","trial_index":49,"time_elapsed":82709,"internal_node_id":"0.0-2.0-0.47"},{"rt":1314,"stimulus":"images/Other/With_Backgrounds/difficulty3_image2.png","response":7,"category":"Other","background_difficulty":"3","image_path":"images/Other/With_Backgrounds/difficulty3_image2.png","trial_type":"image-button-response","trial_index":50,"time_elapsed":84024,"internal_node_id":"0.0-2.0-0.48"},{"rt":1243,"stimulus":"images/Cat/With_Backgrounds/difficulty0_image6.png","response":3,"category":"Cat","background_difficulty":"0","image_path":"images/Cat/With_Backgrounds/difficulty0_image6.png","trial_type":"image-button-response","trial_index":51,"time_elapsed":85268,"internal_node_id":"0.0-2.0-0.49"},{"rt":1689,"stimulus":"images/Tree/With_Backgrounds/difficulty7_image3.png","response":6,"category":"Tree","background_difficulty":"7","image_path":"images/Tree/With_Backgrounds/difficulty7_image3.png","trial_type":"image-button-response","trial_index":52,"time_elapsed":86958,"internal_node_id":"0.0-2.0-0.50"},{"rt":985,"stimulus":"images/Human/With_Backgrounds/difficulty4_image0.png","response":5,"category":"Human","background_difficulty":"4","image_path":"images/Human/With_Backgrounds/difficulty4_image0.png","trial_type":"image-button-response","trial_index":53,"time_elapsed":87945,"internal_node_id":"0.0-2.0-0.51"},{"rt":1029,"stimulus":"images/Tree/With_Backgrounds/difficulty3_image6.png","response":6,"category":"Tree","background_difficulty":"3","image_path":"images/Tree/With_Backgrounds/difficulty3_image6.png","trial_type":"image-button-response","trial_index":54,"time_elapsed":88975,"internal_node_id":"0.0-2.0-0.52"},{"rt":1229,"stimulus":"images/Broccoli/With_Backgrounds/difficulty4_image7.png","response":1,"category":"Broccoli","background_difficulty":"4","image_path":"images/Broccoli/With_Backgrounds/difficulty4_image7.png","trial_type":"image-button-response","trial_index":55,"time_elapsed":90206,"internal_node_id":"0.0-2.0-0.53"},{"rt":1560,"stimulus":"images/Other/With_Backgrounds/difficulty8_image1.png","response":7,"category":"Other","background_difficulty":"8","image_path":"images/Other/With_Backgrounds/difficulty8_image1.png","trial_type":"image-button-response","trial_index":56,"time_elapsed":91767,"internal_node_id":"0.0-2.0-0.54"},{"rt":1204,"stimulus":"images/Car/With_Backgrounds/difficulty3_image5.png","response":2,"category":"Car","background_difficulty":"3","image_path":"images/Car/With_Backgrounds/difficulty3_image5.png","trial_type":"image-button-response","trial_index":57,"time_elapsed":92973,"internal_node_id":"0.0-2.0-0.55"},{"rt":1147,"stimulus":"images/Dog/With_Backgrounds/difficulty2_image7.png","response":4,"category":"Dog","background_difficulty":"2","image_path":"images/Dog/With_Backgrounds/difficulty2_image7.png","trial_type":"image-button-response","trial_index":58,"time_elapsed":94121,"internal_node_id":"0.0-2.0-0.56"},{"rt":1004,"stimulus":"images/Cat/With_Backgrounds/difficulty8_image2.png","response":3,"category":"Cat","background_difficulty":"8","image_path":"images/Cat/With_Backgrounds/difficulty8_image2.png","trial_type":"image-button-response","trial_index":59,"time_elapsed":95127,"internal_node_id":"0.0-2.0-0.57"},{"rt":1166,"stimulus":"images/Broccoli/With_Backgrounds/difficulty8_image4.png","response":1,"category":"Broccoli","background_difficulty":"8","image_path":"images/Broccoli/With_Backgrounds/difficulty8_image4.png","trial_type":"image-button-response","trial_index":60,"time_elapsed":96294,"internal_node_id":"0.0-2.0-0.58"},{"rt":1273,"stimulus":"images/Dog/With_Backgrounds/difficulty3_image2.png","response":4,"category":"Dog","background_difficulty":"3","image_path":"images/Dog/With_Backgrounds/difficulty3_image2.png","trial_type":"image-button-response","trial_index":61,"time_elapsed":97568,"internal_node_id":"0.0-2.0-0.59"},{"rt":1373,"stimulus":"images/Other/With_Backgrounds/difficulty6_image0.png","response":7,"category":"Other","background_difficulty":"6","image_path":"images/Other/With_Backgrounds/difficulty6_image0.png","trial_type":"image-button-response","trial_index":62,"time_elapsed":98943,"internal_node_id":"0.0-2.0-0.60"},{"rt":1326,"stimulus":"images/Boat/With_Backgrounds/difficulty4_image4.png","response":0,"category":"Boat","background_difficulty":"4","image_path":"images/Boat/With_Backgrounds/difficulty4_image4.png","trial_type":"image-button-response","trial_index":63,"time_elapsed":100271,"internal_node_id":"0.0-2.0-0.61"},{"rt":4389,"stimulus":"images/Car/With_Backgrounds/difficulty4_image1.png","response":2,"category":"Car","background_difficulty":"4","image_path":"images/Car/With_Backgrounds/difficulty4_image1.png","trial_type":"image-button-response","trial_index":64,"time_elapsed":104662,"internal_node_id":"0.0-2.0-0.62"},{"rt":1061,"stimulus":"images/Boat/With_Backgrounds/difficulty5_image8.png","response":0,"category":"Boat","background_difficulty":"5","image_path":"images/Boat/With_Backgrounds/difficulty5_image8.png","trial_type":"image-button-response","trial_index":65,"time_elapsed":105724,"internal_node_id":"0.0-2.0-0.63"},{"rt":1176,"stimulus":"images/Dog/With_Backgrounds/difficulty1_image5.png","response":4,"category":"Dog","background_difficulty":"1","image_path":"images/Dog/With_Backgrounds/difficulty1_image5.png","trial_type":"image-button-response","trial_index":66,"time_elapsed":106901,"internal_node_id":"0.0-2.0-0.64"},{"rt":1337,"stimulus":"images/Boat/With_Backgrounds/difficulty8_image3.png","response":0,"category":"Boat","background_difficulty":"8","image_path":"images/Boat/With_Backgrounds/difficulty8_image3.png","trial_type":"image-button-response","trial_index":67,"time_elapsed":108239,"internal_node_id":"0.0-2.0-0.65"},{"rt":1132,"stimulus":"images/Dog/With_Backgrounds/difficulty0_image3.png","response":4,"category":"Dog","background_difficulty":"0","image_path":"images/Dog/With_Backgrounds/difficulty0_image3.png","trial_type":"image-button-response","trial_index":68,"time_elapsed":109373,"internal_node_id":"0.0-2.0-0.66"},{"rt":1060,"stimulus":"images/Dog/With_Backgrounds/difficulty6_image9.png","response":4,"category":"Dog","background_difficulty":"6","image_path":"images/Dog/With_Backgrounds/difficulty6_image9.png","trial_type":"image-button-response","trial_index":69,"time_elapsed":110434,"internal_node_id":"0.0-2.0-0.67"},{"rt":994,"stimulus":"images/Dog/With_Backgrounds/difficulty5_image8.png","response":4,"category":"Dog","background_difficulty":"5","image_path":"images/Dog/With_Backgrounds/difficulty5_image8.png","trial_type":"image-button-response","trial_index":70,"time_elapsed":111430,"internal_node_id":"0.0-2.0-0.68"},{"rt":1054,"stimulus":"images/Cat/With_Backgrounds/difficulty4_image3.png","response":3,"category":"Cat","background_difficulty":"4","image_path":"images/Cat/With_Backgrounds/difficulty4_image3.png","trial_type":"image-button-response","trial_index":71,"time_elapsed":112486,"internal_node_id":"0.0-2.0-0.69"},{"rt":1366,"stimulus":"images/Boat/With_Backgrounds/difficulty3_image9.png","response":0,"category":"Boat","background_difficulty":"3","image_path":"images/Boat/With_Backgrounds/difficulty3_image9.png","trial_type":"image-button-response","trial_index":72,"time_elapsed":113853,"internal_node_id":"0.0-2.0-0.70"},{"rt":4419,"stimulus":"images/Tree/With_Backgrounds/difficulty4_image7.png","response":2,"category":"Tree","background_difficulty":"4","image_path":"images/Tree/With_Backgrounds/difficulty4_image7.png","trial_type":"image-button-response","trial_index":73,"time_elapsed":118274,"internal_node_id":"0.0-2.0-0.71"},{"rt":1076,"stimulus":["<h2>Press the button below to end experiment.</h2><p>Thank you for participating!</p>"],"response":0,"trial_type":"html-button-response","trial_index":74,"time_elapsed":119351,"internal_node_id":"0.0-3.0"}]