[{"success":true,"timeout":false,"failed_images":[],"failed_audio":[],"failed_video":[],"trial_type":"preload","trial_index":0,"time_elapsed":1564,"internal_node_id":"0.0-0.0"},{"rt":22556,"stimulus":["<h2>Noisy background image classification</h2><p>In this experiment you will briefly see images on top of colored squares of various sizes.</p><p>Your task is to report what each image is, selecting \"None of the Above\" if none of the given options are correct.</p> <p>The possible options are <strong>Boat</strong>, <strong>Broccoli</strong>, <strong>Car</strong>, <strong>Cat</strong>, <strong>Dog</strong>, <strong>Human</strong>, <strong>Tree</strong>, and <strong>None of the Above</strong>"],"response":0,"trial_type":"html-button-response","trial_index":1,"time_elapsed":24135,"internal_node_id":"0.0-1.0"},{"rt":3660,"stimulus":"images/Tree/With_Backgrounds/difficulty6_image3.png","response":6,"category":"Tree","background_difficulty":"6","image_path":"images/Tree/With_Backgrounds/difficulty6_image3.png","trial_type":"image-button-response","trial_index":2,"time_elapsed":27819,"internal_node_id":"0.0-2.0-0.0"},{"rt":2415,"stimulus":"images/Broccoli/With_Backgrounds/difficulty7_image0.png","response":1,"category":"Broccoli","background_difficulty":"7","image_path":"images/Broccoli/With_Backgrounds/difficulty7_image0.png","trial_type":"image-button-response","trial_index":3,"time_elapsed":30253,"internal_node_id":"0.0-2.0-0.1"},{"rt":5322,"stimulus":"images/Tree/With_Backgrounds/difficulty3_image6.png","response":6,"category":"Tree","background_difficulty":"3","image_path":"images/Tree/With_Backgrounds/difficulty3_image6.png","trial_type":"image-button-response","trial_index":4,"time_elapsed":35579,"internal_node_id":"0.0-2.0-0.2"},{"rt":1724,"stimulus":"images/Boat/With_Backgrounds/difficulty7_image1.png","response":0,"category":"Boat","background_difficulty":"7","image_path":"images/Boat/With_Backgrounds/difficulty7_image1.png","trial_type":"image-button-response","trial_index":5,"time_elapsed":37307,"internal_node_id":"0.0-2.0-0.3"},{"rt":2012,"stimulus":"images/Dog/With_Backgrounds/difficulty5_image9.png","response":4,"category":"Dog","background_difficulty":"5","image_path":"images/Dog/With_Backgrounds/difficulty5_image9.png","trial_type":"image-button-response","trial_index":6,"time_elapsed":39323,"internal_node_id":"0.0-2.0-0.4"},{"rt":2380,"stimulus":"images/Other/With_Backgrounds/difficulty1_image5.png","response":7,"category":"Other","background_difficulty":"1","image_path":"images/Other/With_Backgrounds/difficulty1_image5.png","trial_type":"image-button-response","trial_index":7,"time_elapsed":41708,"internal_node_id":"0.0-2.0-0.5"},{"rt":1928,"stimulus":"images/Tree/With_Backgrounds/difficulty8_image1.png","response":6,"category":"Tree","background_difficulty":"8","image_path":"images/Tree/With_Backgrounds/difficulty8_image1.png","trial_type":"image-button-response","trial_index":8,"time_elapsed":43640,"internal_node_id":"0.0-2.0-0.6"},{"rt":1875,"stimulus":"images/Human/With_Backgrounds/difficulty3_image6.png","response":5,"category":"Human","background_difficulty":"3","image_path":"images/Human/With_Backgrounds/difficulty3_image6.png","trial_type":"image-button-response","trial_index":9,"time_elapsed":45519,"internal_node_id":"0.0-2.0-0.7"},{"rt":1413,"stimulus":"images/Human/With_Backgrounds/difficulty6_image4.png","response":5,"category":"Human","background_difficulty":"6","image_path":"images/Human/With_Backgrounds/difficulty6_image4.png","trial_type":"image-button-response","trial_index":10,"time_elapsed":46937,"internal_node_id":"0.0-2.0-0.8"},{"rt":2389,"stimulus":"images/Dog/With_Backgrounds/difficulty0_image7.png","response":4,"category":"Dog","background_difficulty":"0","image_path":"images/Dog/With_Backgrounds/difficulty0_image7.png","trial_type":"image-button-response","trial_index":11,"time_elapsed":49329,"internal_node_id":"0.0-2.0-0.9"},{"rt":1987,"stimulus":"images/Cat/With_Backgrounds/difficulty7_image6.png","response":3,"category":"Cat","background_difficulty":"7","image_path":"images/Cat/With_Backgrounds/difficulty7_image6.png","trial_type":"image-button-response","trial_index":12,"time_elapsed":51321,"internal_node_id":"0.0-2.0-0.10"},{"rt":1523,"stimulus":"images/Human/With_Backgrounds/difficulty5_image9.png","response":5,"category":"Human","background_difficulty":"5","image_path":"images/Human/With_Backgrounds/difficulty5_image9.png","trial_type":"image-button-response","trial_index":13,"time_elapsed":52847,"internal_node_id":"0.0-2.0-0.11"},{"rt":1639,"stimulus":"images/Cat/With_Backgrounds/difficulty8_image9.png","response":3,"category":"Cat","background_difficulty":"8","image_path":"images/Cat/With_Backgrounds/difficulty8_image9.png","trial_type":"image-button-response","trial_index":14,"time_elapsed":54491,"internal_node_id":"0.0-2.0-0.12"},{"rt":2662,"stimulus":"images/Dog/With_Backgrounds/difficulty8_image5.png","response":4,"category":"Dog","background_difficulty":"8","image_path":"images/Dog/With_Backgrounds/difficulty8_image5.png","trial_type":"image-button-response","trial_index":15,"time_elapsed":57157,"internal_node_id":"0.0-2.0-0.13"},{"rt":1729,"stimulus":"images/Broccoli/With_Backgrounds/difficulty6_image4.png","response":1,"category":"Broccoli","background_difficulty":"6","image_path":"images/Broccoli/With_Backgrounds/difficulty6_image4.png","trial_type":"image-button-response","trial_index":16,"time_elapsed":58891,"internal_node_id":"0.0-2.0-0.14"},{"rt":1572,"stimulus":"images/Human/With_Backgrounds/difficulty7_image7.png","response":5,"category":"Human","background_difficulty":"7","image_path":"images/Human/With_Backgrounds/difficulty7_image7.png","trial_type":"image-button-response","trial_index":17,"time_elapsed":60468,"internal_node_id":"0.0-2.0-0.15"},{"rt":1705,"stimulus":"images/Tree/With_Backgrounds/difficulty0_image5.png","response":6,"category":"Tree","background_difficulty":"0","image_path":"images/Tree/With_Backgrounds/difficulty0_image5.png","trial_type":"image-button-response","trial_index":18,"time_elapsed":62177,"internal_node_id":"0.0-2.0-0.16"},{"rt":2179,"stimulus":"images/Cat/With_Backgrounds/difficulty3_image1.png","response":3,"category":"Cat","background_difficulty":"3","image_path":"images/Cat/With_Backgrounds/difficulty3_image1.png","trial_type":"image-button-response","trial_index":19,"time_elapsed":64360,"internal_node_id":"0.0-2.0-0.17"},{"rt":2123,"stimulus":"images/Boat/With_Backgrounds/difficulty2_image9.png","response":0,"category":"Boat","background_difficulty":"2","image_path":"images/Boat/With_Backgrounds/difficulty2_image9.png","trial_type":"image-button-response","trial_index":20,"time_elapsed":66487,"internal_node_id":"0.0-2.0-0.18"},{"rt":2366,"stimulus":"images/Car/With_Backgrounds/difficulty3_image8.png","response":2,"category":"Car","background_difficulty":"3","image_path":"images/Car/With_Backgrounds/difficulty3_image8.png","trial_type":"image-button-response","trial_index":21,"time_elapsed":68868,"internal_node_id":"0.0-2.0-0.19"},{"rt":2046,"stimulus":"images/Tree/With_Backgrounds/difficulty4_image7.png","response":6,"category":"Tree","background_difficulty":"4","image_path":"images/Tree/With_Backgrounds/difficulty4_image7.png","trial_type":"image-button-response","trial_index":22,"time_elapsed":70928,"internal_node_id":"0.0-2.0-0.20"},{"rt":2348,"stimulus":"images/Broccoli/With_Backgrounds/difficulty8_image2.png","response":1,"category":"Broccoli","background_difficulty":"8","image_path":"images/Broccoli/With_Backgrounds/difficulty8_image2.png","trial_type":"image-button-response","trial_index":23,"time_elapsed":73296,"internal_node_id":"0.0-2.0-0.21"},{"rt":2168,"stimulus":"images/Car/With_Backgrounds/difficulty4_image6.png","response":2,"category":"Car","background_difficulty":"4","image_path":"images/Car/With_Backgrounds/difficulty4_image6.png","trial_type":"image-button-response","trial_index":24,"time_elapsed":75480,"internal_node_id":"0.0-2.0-0.22"},{"rt":1511,"stimulus":"images/Car/With_Backgrounds/difficulty5_image3.png","response":2,"category":"Car","background_difficulty":"5","image_path":"images/Car/With_Backgrounds/difficulty5_image3.png","trial_type":"image-button-response","trial_index":25,"time_elapsed":77005,"internal_node_id":"0.0-2.0-0.23"},{"rt":3843,"stimulus":"images/Other/With_Backgrounds/difficulty8_image6.png","response":7,"category":"Other","background_difficulty":"8","image_path":"images/Other/With_Backgrounds/difficulty8_image6.png","trial_type":"image-button-response","trial_index":26,"time_elapsed":80864,"internal_node_id":"0.0-2.0-0.24"},{"rt":2406,"stimulus":"images/Other/With_Backgrounds/difficulty2_image3.png","response":7,"category":"Other","background_difficulty":"2","image_path":"images/Other/With_Backgrounds/difficulty2_image3.png","trial_type":"image-button-response","trial_index":27,"time_elapsed":83279,"internal_node_id":"0.0-2.0-0.25"},{"rt":1964,"stimulus":"images/Cat/With_Backgrounds/difficulty0_image0.png","response":3,"category":"Cat","background_difficulty":"0","image_path":"images/Cat/With_Backgrounds/difficulty0_image0.png","trial_type":"image-button-response","trial_index":28,"time_elapsed":85259,"internal_node_id":"0.0-2.0-0.26"},{"rt":1597,"stimulus":"images/Broccoli/With_Backgrounds/difficulty4_image9.png","response":1,"category":"Broccoli","background_difficulty":"4","image_path":"images/Broccoli/With_Backgrounds/difficulty4_image9.png","trial_type":"image-button-response","trial_index":29,"time_elapsed":86870,"internal_node_id":"0.0-2.0-0.27"},{"rt":1623,"stimulus":"images/Tree/With_Backgrounds/difficulty7_image8.png","response":6,"category":"Tree","background_difficulty":"7","image_path":"images/Tree/With_Backgrounds/difficulty7_image8.png","trial_type":"image-button-response","trial_index":30,"time_elapsed":88511,"internal_node_id":"0.0-2.0-0.28"},{"rt":1555,"stimulus":"images/Tree/With_Backgrounds/difficulty1_image4.png","response":6,"category":"Tree","background_difficulty":"1","image_path":"images/Tree/With_Backgrounds/difficulty1_image4.png","trial_type":"image-button-response","trial_index":31,"time_elapsed":90078,"internal_node_id":"0.0-2.0-0.29"},{"rt":2856,"stimulus":"images/Boat/With_Backgrounds/difficulty3_image2.png","response":0,"category":"Boat","background_difficulty":"3","image_path":"images/Boat/With_Backgrounds/difficulty3_image2.png","trial_type":"image-button-response","trial_index":32,"time_elapsed":92946,"internal_node_id":"0.0-2.0-0.30"},{"rt":2139,"stimulus":"images/Dog/With_Backgrounds/difficulty4_image8.png","response":4,"category":"Dog","background_difficulty":"4","image_path":"images/Dog/With_Backgrounds/difficulty4_image8.png","trial_type":"image-button-response","trial_index":33,"time_elapsed":95100,"internal_node_id":"0.0-2.0-0.31"},{"rt":2492,"stimulus":"images/Other/With_Backgrounds/difficulty3_image1.png","response":7,"category":"Other","background_difficulty":"3","image_path":"images/Other/With_Backgrounds/difficulty3_image1.png","trial_type":"image-button-response","trial_index":34,"time_elapsed":97608,"internal_node_id":"0.0-2.0-0.32"},{"rt":1370,"stimulus":"images/Broccoli/With_Backgrounds/difficulty0_image7.png","response":1,"category":"Broccoli","background_difficulty":"0","image_path":"images/Broccoli/With_Backgrounds/difficulty0_image7.png","trial_type":"image-button-response","trial_index":35,"time_elapsed":98991,"internal_node_id":"0.0-2.0-0.33"},{"rt":1579,"stimulus":"images/Tree/With_Backgrounds/difficulty5_image2.png","response":6,"category":"Tree","background_difficulty":"5","image_path":"images/Tree/With_Backgrounds/difficulty5_image2.png","trial_type":"image-button-response","trial_index":36,"time_elapsed":100587,"internal_node_id":"0.0-2.0-0.34"},{"rt":1622,"stimulus":"images/Cat/With_Backgrounds/difficulty2_image2.png","response":3,"category":"Cat","background_difficulty":"2","image_path":"images/Cat/With_Backgrounds/difficulty2_image2.png","trial_type":"image-button-response","trial_index":37,"time_elapsed":102225,"internal_node_id":"0.0-2.0-0.35"},{"rt":1471,"stimulus":"images/Car/With_Backgrounds/difficulty2_image4.png","response":2,"category":"Car","background_difficulty":"2","image_path":"images/Car/With_Backgrounds/difficulty2_image4.png","trial_type":"image-button-response","trial_index":38,"time_elapsed":103710,"internal_node_id":"0.0-2.0-0.36"},{"rt":1388,"stimulus":"images/Broccoli/With_Backgrounds/difficulty1_image6.png","response":1,"category":"Broccoli","background_difficulty":"1","image_path":"images/Broccoli/With_Backgrounds/difficulty1_image6.png","trial_type":"image-button-response","trial_index":39,"time_elapsed":105113,"internal_node_id":"0.0-2.0-0.37"},{"rt":1691,"stimulus":"images/Dog/With_Backgrounds/difficulty7_image0.png","response":4,"category":"Dog","background_difficulty":"7","image_path":"images/Dog/With_Backgrounds/difficulty7_image0.png","trial_type":"image-button-response","trial_index":40,"time_elapsed":106820,"internal_node_id":"0.0-2.0-0.38"},{"rt":2113,"stimulus":"images/Other/With_Backgrounds/difficulty5_image8.png","response":7,"category":"Other","background_difficulty":"5","image_path":"images/Other/With_Backgrounds/difficulty5_image8.png","trial_type":"image-button-response","trial_index":41,"time_elapsed":108946,"internal_node_id":"0.0-2.0-0.39"},{"rt":1680,"stimulus":"images/Dog/With_Backgrounds/difficulty2_image1.png","response":4,"category":"Dog","background_difficulty":"2","image_path":"images/Dog/With_Backgrounds/difficulty2_image1.png","trial_type":"image-button-response","trial_index":42,"time_elapsed":110645,"internal_node_id":"0.0-2.0-0.40"},{"rt":1838,"stimulus":"images/Boat/With_Backgrounds/difficulty1_image4.png","response":0,"category":"Boat","background_difficulty":"1","image_path":"images/Boat/With_Backgrounds/difficulty1_image4.png","trial_type":"image-button-response","trial_index":43,"time_elapsed":112498,"internal_node_id":"0.0-2.0-0.41"},{"rt":1618,"stimulus":"images/Cat/With_Backgrounds/difficulty4_image8.png","response":3,"category":"Cat","background_difficulty":"4","image_path":"images/Cat/With_Backgrounds/difficulty4_image8.png","trial_type":"image-button-response","trial_index":44,"time_elapsed":114132,"internal_node_id":"0.0-2.0-0.42"},{"rt":1235,"stimulus":"images/Cat/With_Backgrounds/difficulty1_image7.png","response":3,"category":"Cat","background_difficulty":"1","image_path":"images/Cat/With_Backgrounds/difficulty1_image7.png","trial_type":"image-button-response","trial_index":45,"time_elapsed":115385,"internal_node_id":"0.0-2.0-0.43"},{"rt":1453,"stimulus":"images/Broccoli/With_Backgrounds/difficulty2_image3.png","response":1,"category":"Broccoli","background_difficulty":"2","image_path":"images/Broccoli/With_Backgrounds/difficulty2_image3.png","trial_type":"image-button-response","trial_index":46,"time_elapsed":116851,"internal_node_id":"0.0-2.0-0.44"},{"rt":1587,"stimulus":"images/Boat/With_Backgrounds/difficulty6_image6.png","response":0,"category":"Boat","background_difficulty":"6","image_path":"images/Boat/With_Backgrounds/difficulty6_image6.png","trial_type":"image-button-response","trial_index":47,"time_elapsed":118451,"internal_node_id":"0.0-2.0-0.45"},{"rt":1577,"stimulus":"images/Boat/With_Backgrounds/difficulty0_image0.png","response":0,"category":"Boat","background_difficulty":"0","image_path":"images/Boat/With_Backgrounds/difficulty0_image0.png","trial_type":"image-button-response","trial_index":48,"time_elapsed":120042,"internal_node_id":"0.0-2.0-0.46"},{"rt":1812,"stimulus":"images/Broccoli/With_Backgrounds/difficulty3_image8.png","response":1,"category":"Broccoli","background_difficulty":"3","image_path":"images/Broccoli/With_Backgrounds/difficulty3_image8.png","trial_type":"image-button-response","trial_index":49,"time_elapsed":121868,"internal_node_id":"0.0-2.0-0.47"},{"rt":1611,"stimulus":"images/Car/With_Backgrounds/difficulty1_image5.png","response":2,"category":"Car","background_difficulty":"1","image_path":"images/Car/With_Backgrounds/difficulty1_image5.png","trial_type":"image-button-response","trial_index":50,"time_elapsed":123494,"internal_node_id":"0.0-2.0-0.48"},{"rt":1328,"stimulus":"images/Human/With_Backgrounds/difficulty4_image2.png","response":5,"category":"Human","background_difficulty":"4","image_path":"images/Human/With_Backgrounds/difficulty4_image2.png","trial_type":"image-button-response","trial_index":51,"time_elapsed":124837,"internal_node_id":"0.0-2.0-0.49"},{"rt":1234,"stimulus":"images/Human/With_Backgrounds/difficulty1_image1.png","response":5,"category":"Human","background_difficulty":"1","image_path":"images/Human/With_Backgrounds/difficulty1_image1.png","trial_type":"image-button-response","trial_index":52,"time_elapsed":126088,"internal_node_id":"0.0-2.0-0.50"},{"rt":3209,"stimulus":"images/Dog/With_Backgrounds/difficulty6_image6.png","response":4,"category":"Dog","background_difficulty":"6","image_path":"images/Dog/With_Backgrounds/difficulty6_image6.png","trial_type":"image-button-response","trial_index":53,"time_elapsed":129313,"internal_node_id":"0.0-2.0-0.51"},{"rt":1798,"stimulus":"images/Boat/With_Backgrounds/difficulty4_image8.png","response":0,"category":"Boat","background_difficulty":"4","image_path":"images/Boat/With_Backgrounds/difficulty4_image8.png","trial_type":"image-button-response","trial_index":54,"time_elapsed":131125,"internal_node_id":"0.0-2.0-0.52"},{"rt":1895,"stimulus":"images/Dog/With_Backgrounds/difficulty3_image2.png","response":4,"category":"Dog","background_difficulty":"3","image_path":"images/Dog/With_Backgrounds/difficulty3_image2.png","trial_type":"image-button-response","trial_index":55,"time_elapsed":133035,"internal_node_id":"0.0-2.0-0.53"},{"rt":1479,"stimulus":"images/Human/With_Backgrounds/difficulty0_image0.png","response":5,"category":"Human","background_difficulty":"0","image_path":"images/Human/With_Backgrounds/difficulty0_image0.png","trial_type":"image-button-response","trial_index":56,"time_elapsed":134527,"internal_node_id":"0.0-2.0-0.54"},{"rt":1708,"stimulus":"images/Boat/With_Backgrounds/difficulty5_image3.png","response":0,"category":"Boat","background_difficulty":"5","image_path":"images/Boat/With_Backgrounds/difficulty5_image3.png","trial_type":"image-button-response","trial_index":57,"time_elapsed":136250,"internal_node_id":"0.0-2.0-0.55"},{"rt":1522,"stimulus":"images/Car/With_Backgrounds/difficulty7_image0.png","response":2,"category":"Car","background_difficulty":"7","image_path":"images/Car/With_Backgrounds/difficulty7_image0.png","trial_type":"image-button-response","trial_index":58,"time_elapsed":137785,"internal_node_id":"0.0-2.0-0.56"},{"rt":1383,"stimulus":"images/Car/With_Backgrounds/difficulty6_image2.png","response":2,"category":"Car","background_difficulty":"6","image_path":"images/Car/With_Backgrounds/difficulty6_image2.png","trial_type":"image-button-response","trial_index":59,"time_elapsed":139178,"internal_node_id":"0.0-2.0-0.57"},{"rt":1883,"stimulus":"images/Tree/With_Backgrounds/difficulty2_image0.png","response":6,"category":"Tree","background_difficulty":"2","image_path":"images/Tree/With_Backgrounds/difficulty2_image0.png","trial_type":"image-button-response","trial_index":60,"time_elapsed":141079,"internal_node_id":"0.0-2.0-0.58"},{"rt":1317,"stimulus":"images/Human/With_Backgrounds/difficulty2_image3.png","response":5,"category":"Human","background_difficulty":"2","image_path":"images/Human/With_Backgrounds/difficulty2_image3.png","trial_type":"image-button-response","trial_index":61,"time_elapsed":142413,"internal_node_id":"0.0-2.0-0.59"},{"rt":1117,"stimulus":"images/Human/With_Backgrounds/difficulty8_image8.png","response":5,"category":"Human","background_difficulty":"8","image_path":"images/Human/With_Backgrounds/difficulty8_image8.png","trial_type":"image-button-response","trial_index":62,"time_elapsed":143547,"internal_node_id":"0.0-2.0-0.60"},{"rt":1360,"stimulus":"images/Other/With_Backgrounds/difficulty7_image9.png","response":7,"category":"Other","background_difficulty":"7","image_path":"images/Other/With_Backgrounds/difficulty7_image9.png","trial_type":"image-button-response","trial_index":63,"time_elapsed":144924,"internal_node_id":"0.0-2.0-0.61"},{"rt":1758,"stimulus":"images/Boat/With_Backgrounds/difficulty8_image7.png","response":0,"category":"Boat","background_difficulty":"8","image_path":"images/Boat/With_Backgrounds/difficulty8_image7.png","trial_type":"image-button-response","trial_index":64,"time_elapsed":146698,"internal_node_id":"0.0-2.0-0.62"},{"rt":1996,"stimulus":"images/Cat/With_Backgrounds/difficulty5_image3.png","response":3,"category":"Cat","background_difficulty":"5","image_path":"images/Cat/With_Backgrounds/difficulty5_image3.png","trial_type":"image-button-response","trial_index":65,"time_elapsed":148710,"internal_node_id":"0.0-2.0-0.63"},{"rt":1480,"stimulus":"images/Other/With_Backgrounds/difficulty4_image7.png","response":7,"category":"Other","background_difficulty":"4","image_path":"images/Other/With_Backgrounds/difficulty4_image7.png","trial_type":"image-button-response","trial_index":66,"time_elapsed":150207,"internal_node_id":"0.0-2.0-0.64"},{"rt":1489,"stimulus":"images/Car/With_Backgrounds/difficulty8_image1.png","response":2,"category":"Car","background_difficulty":"8","image_path":"images/Car/With_Backgrounds/difficulty8_image1.png","trial_type":"image-button-response","trial_index":67,"time_elapsed":151726,"internal_node_id":"0.0-2.0-0.65"},{"rt":2105,"stimulus":"images/Cat/With_Backgrounds/difficulty6_image4.png","response":3,"category":"Cat","background_difficulty":"6","image_path":"images/Cat/With_Backgrounds/difficulty6_image4.png","trial_type":"image-button-response","trial_index":68,"time_elapsed":153843,"internal_node_id":"0.0-2.0-0.66"},{"rt":2630,"stimulus":"images/Other/With_Backgrounds/difficulty0_image0.png","response":7,"category":"Other","background_difficulty":"0","image_path":"images/Other/With_Backgrounds/difficulty0_image0.png","trial_type":"image-button-response","trial_index":69,"time_elapsed":156486,"internal_node_id":"0.0-2.0-0.67"},{"rt":2528,"stimulus":"images/Dog/With_Backgrounds/difficulty1_image4.png","response":4,"category":"Dog","background_difficulty":"1","image_path":"images/Dog/With_Backgrounds/difficulty1_image4.png","trial_type":"image-button-response","trial_index":70,"time_elapsed":159036,"internal_node_id":"0.0-2.0-0.68"},{"rt":2012,"stimulus":"images/Car/With_Backgrounds/difficulty0_image9.png","response":2,"category":"Car","background_difficulty":"0","image_path":"images/Car/With_Backgrounds/difficulty0_image9.png","trial_type":"image-button-response","trial_index":71,"time_elapsed":161063,"internal_node_id":"0.0-2.0-0.69"},{"rt":2614,"stimulus":"images/Broccoli/With_Backgrounds/difficulty5_image5.png","response":1,"category":"Broccoli","background_difficulty":"5","image_path":"images/Broccoli/With_Backgrounds/difficulty5_image5.png","trial_type":"image-button-response","trial_index":72,"time_elapsed":163691,"internal_node_id":"0.0-2.0-0.70"},{"rt":1509,"stimulus":"images/Other/With_Backgrounds/difficulty6_image2.png","response":7,"category":"Other","background_difficulty":"6","image_path":"images/Other/With_Backgrounds/difficulty6_image2.png","trial_type":"image-button-response","trial_index":73,"time_elapsed":165223,"internal_node_id":"0.0-2.0-0.71"},{"rt":2855,"stimulus":["<h2>Press the button below to end experiment.</h2><p>Thank you for participating!</p>"],"response":0,"trial_type":"html-button-response","trial_index":74,"time_elapsed":168084,"internal_node_id":"0.0-3.0"}]