[{"success":true,"timeout":false,"failed_images":[],"failed_audio":[],"failed_video":[],"trial_type":"preload","trial_index":0,"time_elapsed":2550,"internal_node_id":"0.0-0.0"},{"rt":2117,"stimulus":["<h2>Noisy background image classification</h2><p>In this experiment you will briefly see images on top of colored squares of various sizes.</p><p>Your task is to report what each image is, selecting \"None of the Above\" if none of the given options are correct.</p> <p>The possible options are <strong>Boat</strong>, <strong>Broccoli</strong>, <strong>Car</strong>, <strong>Cat</strong>, <strong>Dog</strong>, <strong>Human</strong>, <strong>Tree</strong>, and <strong>None of the Above</strong>"],"response":0,"trial_type":"html-button-response","trial_index":1,"time_elapsed":4668,"internal_node_id":"0.0-1.0"},{"rt":1848,"stimulus":"images/Cat/With_Backgrounds/difficulty6_image3.png","response":3,"category":"Cat","background_difficulty":"6","image_path":"images/Cat/With_Backgrounds/difficulty6_image3.png","trial_type":"image-button-response","trial_index":2,"time_elapsed":6520,"internal_node_id":"0.0-2.0-0.0"},{"rt":1393,"stimulus":"images/Tree/With_Backgrounds/difficulty3_image5.png","response":6,"category":"Tree","background_difficulty":"3","image_path":"images/Tree/With_Backgrounds/difficulty3_image5.png","trial_type":"image-button-response","trial_index":3,"time_elapsed":7914,"internal_node_id":"0.0-2.0-0.1"},{"rt":1059,"stimulus":"images/Dog/With_Backgrounds/difficulty2_image2.png","response":4,"category":"Dog","background_difficulty":"2","image_path":"images/Dog/With_Backgrounds/difficulty2_image2.png","trial_type":"image-button-response","trial_index":4,"time_elapsed":8974,"internal_node_id":"0.0-2.0-0.2"},{"rt":3824,"stimulus":"images/Other/With_Backgrounds/difficulty1_image8.png","response":7,"category":"Other","background_difficulty":"1","image_path":"images/Other/With_Backgrounds/difficulty1_image8.png","trial_type":"image-button-response","trial_index":5,"time_elapsed":12800,"internal_node_id":"0.0-2.0-0.3"},{"rt":2363,"stimulus":"images/Other/With_Backgrounds/difficulty5_image1.png","response":7,"category":"Other","background_difficulty":"5","image_path":"images/Other/With_Backgrounds/difficulty5_image1.png","trial_type":"image-button-response","trial_index":6,"time_elapsed":15164,"internal_node_id":"0.0-2.0-0.4"},{"rt":1953,"stimulus":"images/Human/With_Backgrounds/difficulty1_image4.png","response":5,"category":"Human","background_difficulty":"1","image_path":"images/Human/With_Backgrounds/difficulty1_image4.png","trial_type":"image-button-response","trial_index":7,"time_elapsed":17118,"internal_node_id":"0.0-2.0-0.5"},{"rt":1413,"stimulus":"images/Cat/With_Backgrounds/difficulty3_image8.png","response":3,"category":"Cat","background_difficulty":"3","image_path":"images/Cat/With_Backgrounds/difficulty3_image8.png","trial_type":"image-button-response","trial_index":8,"time_elapsed":18533,"internal_node_id":"0.0-2.0-0.6"},{"rt":919,"stimulus":"images/Dog/With_Backgrounds/difficulty6_image5.png","response":4,"category":"Dog","background_difficulty":"6","image_path":"images/Dog/With_Backgrounds/difficulty6_image5.png","trial_type":"image-button-response","trial_index":9,"time_elapsed":19453,"internal_node_id":"0.0-2.0-0.7"},{"rt":1197,"stimulus":"images/Car/With_Backgrounds/difficulty3_image9.png","response":2,"category":"Car","background_difficulty":"3","image_path":"images/Car/With_Backgrounds/difficulty3_image9.png","trial_type":"image-button-response","trial_index":10,"time_elapsed":20652,"internal_node_id":"0.0-2.0-0.8"},{"rt":1027,"stimulus":"images/Cat/With_Backgrounds/difficulty4_image1.png","response":3,"category":"Cat","background_difficulty":"4","image_path":"images/Cat/With_Backgrounds/difficulty4_image1.png","trial_type":"image-button-response","trial_index":11,"time_elapsed":21680,"internal_node_id":"0.0-2.0-0.9"},{"rt":1228,"stimulus":"images/Tree/With_Backgrounds/difficulty2_image1.png","response":6,"category":"Tree","background_difficulty":"2","image_path":"images/Tree/With_Backgrounds/difficulty2_image1.png","trial_type":"image-button-response","trial_index":12,"time_elapsed":22910,"internal_node_id":"0.0-2.0-0.10"},{"rt":1142,"stimulus":"images/Car/With_Backgrounds/difficulty1_image7.png","response":2,"category":"Car","background_difficulty":"1","image_path":"images/Car/With_Backgrounds/difficulty1_image7.png","trial_type":"image-button-response","trial_index":13,"time_elapsed":24052,"internal_node_id":"0.0-2.0-0.11"},{"rt":1165,"stimulus":"images/Broccoli/With_Backgrounds/difficulty6_image6.png","response":1,"category":"Broccoli","background_difficulty":"6","image_path":"images/Broccoli/With_Backgrounds/difficulty6_image6.png","trial_type":"image-button-response","trial_index":14,"time_elapsed":25218,"internal_node_id":"0.0-2.0-0.12"},{"rt":784,"stimulus":"images/Broccoli/With_Backgrounds/difficulty0_image9.png","response":1,"category":"Broccoli","background_difficulty":"0","image_path":"images/Broccoli/With_Backgrounds/difficulty0_image9.png","trial_type":"image-button-response","trial_index":15,"time_elapsed":26003,"internal_node_id":"0.0-2.0-0.13"},{"rt":1203,"stimulus":"images/Dog/With_Backgrounds/difficulty1_image6.png","response":4,"category":"Dog","background_difficulty":"1","image_path":"images/Dog/With_Backgrounds/difficulty1_image6.png","trial_type":"image-button-response","trial_index":16,"time_elapsed":27207,"internal_node_id":"0.0-2.0-0.14"},{"rt":1260,"stimulus":"images/Boat/With_Backgrounds/difficulty1_image0.png","response":0,"category":"Boat","background_difficulty":"1","image_path":"images/Boat/With_Backgrounds/difficulty1_image0.png","trial_type":"image-button-response","trial_index":17,"time_elapsed":28469,"internal_node_id":"0.0-2.0-0.15"},{"rt":952,"stimulus":"images/Dog/With_Backgrounds/difficulty0_image3.png","response":4,"category":"Dog","background_difficulty":"0","image_path":"images/Dog/With_Backgrounds/difficulty0_image3.png","trial_type":"image-button-response","trial_index":18,"time_elapsed":29422,"internal_node_id":"0.0-2.0-0.16"},{"rt":1011,"stimulus":"images/Car/With_Backgrounds/difficulty2_image2.png","response":2,"category":"Car","background_difficulty":"2","image_path":"images/Car/With_Backgrounds/difficulty2_image2.png","trial_type":"image-button-response","trial_index":19,"time_elapsed":30434,"internal_node_id":"0.0-2.0-0.17"},{"rt":1135,"stimulus":"images/Human/With_Backgrounds/difficulty6_image1.png","response":5,"category":"Human","background_difficulty":"6","image_path":"images/Human/With_Backgrounds/difficulty6_image1.png","trial_type":"image-button-response","trial_index":20,"time_elapsed":31570,"internal_node_id":"0.0-2.0-0.18"},{"rt":771,"stimulus":"images/Human/With_Backgrounds/difficulty0_image0.png","response":5,"category":"Human","background_difficulty":"0","image_path":"images/Human/With_Backgrounds/difficulty0_image0.png","trial_type":"image-button-response","trial_index":21,"time_elapsed":32342,"internal_node_id":"0.0-2.0-0.19"},{"rt":1070,"stimulus":"images/Tree/With_Backgrounds/difficulty5_image8.png","response":6,"category":"Tree","background_difficulty":"5","image_path":"images/Tree/With_Backgrounds/difficulty5_image8.png","trial_type":"image-button-response","trial_index":22,"time_elapsed":33413,"internal_node_id":"0.0-2.0-0.20"},{"rt":1287,"stimulus":"images/Boat/With_Backgrounds/difficulty8_image6.png","response":0,"category":"Boat","background_difficulty":"8","image_path":"images/Boat/With_Backgrounds/difficulty8_image6.png","trial_type":"image-button-response","trial_index":23,"time_elapsed":34701,"internal_node_id":"0.0-2.0-0.21"},{"rt":999,"stimulus":"images/Dog/With_Backgrounds/difficulty7_image8.png","response":4,"category":"Dog","background_difficulty":"7","image_path":"images/Dog/With_Backgrounds/difficulty7_image8.png","trial_type":"image-button-response","trial_index":24,"time_elapsed":35701,"internal_node_id":"0.0-2.0-0.22"},{"rt":1072,"stimulus":"images/Tree/With_Backgrounds/difficulty6_image2.png","response":6,"category":"Tree","background_difficulty":"6","image_path":"images/Tree/With_Backgrounds/difficulty6_image2.png","trial_type":"image-button-response","trial_index":25,"time_elapsed":36774,"internal_node_id":"0.0-2.0-0.23"},{"rt":1591,"stimulus":"images/Other/With_Backgrounds/difficulty0_image2.png","response":7,"category":"Other","background_difficulty":"0","image_path":"images/Other/With_Backgrounds/difficulty0_image2.png","trial_type":"image-button-response","trial_index":26,"time_elapsed":38366,"internal_node_id":"0.0-2.0-0.24"},{"rt":1302,"stimulus":"images/Broccoli/With_Backgrounds/difficulty4_image4.png","response":1,"category":"Broccoli","background_difficulty":"4","image_path":"images/Broccoli/With_Backgrounds/difficulty4_image4.png","trial_type":"image-button-response","trial_index":27,"time_elapsed":39670,"internal_node_id":"0.0-2.0-0.25"},{"rt":1150,"stimulus":"images/Cat/With_Backgrounds/difficulty5_image9.png","response":3,"category":"Cat","background_difficulty":"5","image_path":"images/Cat/With_Backgrounds/difficulty5_image9.png","trial_type":"image-button-response","trial_index":28,"time_elapsed":40820,"internal_node_id":"0.0-2.0-0.26"},{"rt":1292,"stimulus":"images/Boat/With_Backgrounds/difficulty3_image8.png","response":0,"category":"Boat","background_difficulty":"3","image_path":"images/Boat/With_Backgrounds/difficulty3_image8.png","trial_type":"image-button-response","trial_index":29,"time_elapsed":42113,"internal_node_id":"0.0-2.0-0.27"},{"rt":1216,"stimulus":"images/Cat/With_Backgrounds/difficulty2_image2.png","response":3,"category":"Cat","background_difficulty":"2","image_path":"images/Cat/With_Backgrounds/difficulty2_image2.png","trial_type":"image-button-response","trial_index":30,"time_elapsed":43330,"internal_node_id":"0.0-2.0-0.28"},{"rt":1126,"stimulus":"images/Broccoli/With_Backgrounds/difficulty8_image0.png","response":1,"category":"Broccoli","background_difficulty":"8","image_path":"images/Broccoli/With_Backgrounds/difficulty8_image0.png","trial_type":"image-button-response","trial_index":31,"time_elapsed":44458,"internal_node_id":"0.0-2.0-0.29"},{"rt":676,"stimulus":"images/Broccoli/With_Backgrounds/difficulty1_image3.png","response":1,"category":"Broccoli","background_difficulty":"1","image_path":"images/Broccoli/With_Backgrounds/difficulty1_image3.png","trial_type":"image-button-response","trial_index":32,"time_elapsed":45135,"internal_node_id":"0.0-2.0-0.30"},{"rt":1086,"stimulus":"images/Human/With_Backgrounds/difficulty7_image2.png","response":5,"category":"Human","background_difficulty":"7","image_path":"images/Human/With_Backgrounds/difficulty7_image2.png","trial_type":"image-button-response","trial_index":33,"time_elapsed":46223,"internal_node_id":"0.0-2.0-0.31"},{"rt":1200,"stimulus":"images/Car/With_Backgrounds/difficulty8_image8.png","response":2,"category":"Car","background_difficulty":"8","image_path":"images/Car/With_Backgrounds/difficulty8_image8.png","trial_type":"image-button-response","trial_index":34,"time_elapsed":47424,"internal_node_id":"0.0-2.0-0.32"},{"rt":1283,"stimulus":"images/Boat/With_Backgrounds/difficulty0_image2.png","response":0,"category":"Boat","background_difficulty":"0","image_path":"images/Boat/With_Backgrounds/difficulty0_image2.png","trial_type":"image-button-response","trial_index":35,"time_elapsed":48708,"internal_node_id":"0.0-2.0-0.33"},{"rt":1213,"stimulus":"images/Tree/With_Backgrounds/difficulty7_image9.png","response":6,"category":"Tree","background_difficulty":"7","image_path":"images/Tree/With_Backgrounds/difficulty7_image9.png","trial_type":"image-button-response","trial_index":36,"time_elapsed":49922,"internal_node_id":"0.0-2.0-0.34"},{"rt":1587,"stimulus":"images/Human/With_Backgrounds/difficulty4_image6.png","response":5,"category":"Human","background_difficulty":"4","image_path":"images/Human/With_Backgrounds/difficulty4_image6.png","trial_type":"image-button-response","trial_index":37,"time_elapsed":51510,"internal_node_id":"0.0-2.0-0.35"},{"rt":1134,"stimulus":"images/Tree/With_Backgrounds/difficulty0_image3.png","response":6,"category":"Tree","background_difficulty":"0","image_path":"images/Tree/With_Backgrounds/difficulty0_image3.png","trial_type":"image-button-response","trial_index":38,"time_elapsed":52645,"internal_node_id":"0.0-2.0-0.36"},{"rt":636,"stimulus":"images/Tree/With_Backgrounds/difficulty1_image0.png","response":6,"category":"Tree","background_difficulty":"1","image_path":"images/Tree/With_Backgrounds/difficulty1_image0.png","trial_type":"image-button-response","trial_index":39,"time_elapsed":53282,"internal_node_id":"0.0-2.0-0.37"},{"rt":969,"stimulus":"images/Dog/With_Backgrounds/difficulty3_image0.png","response":4,"category":"Dog","background_difficulty":"3","image_path":"images/Dog/With_Backgrounds/difficulty3_image0.png","trial_type":"image-button-response","trial_index":40,"time_elapsed":54252,"internal_node_id":"0.0-2.0-0.38"},{"rt":1209,"stimulus":"images/Boat/With_Backgrounds/difficulty2_image3.png","response":0,"category":"Boat","background_difficulty":"2","image_path":"images/Boat/With_Backgrounds/difficulty2_image3.png","trial_type":"image-button-response","trial_index":41,"time_elapsed":55462,"internal_node_id":"0.0-2.0-0.39"},{"rt":944,"stimulus":"images/Car/With_Backgrounds/difficulty7_image1.png","response":2,"category":"Car","background_difficulty":"7","image_path":"images/Car/With_Backgrounds/difficulty7_image1.png","trial_type":"image-button-response","trial_index":42,"time_elapsed":56407,"internal_node_id":"0.0-2.0-0.40"},{"rt":1102,"stimulus":"images/Human/With_Backgrounds/difficulty5_image7.png","response":5,"category":"Human","background_difficulty":"5","image_path":"images/Human/With_Backgrounds/difficulty5_image7.png","trial_type":"image-button-response","trial_index":43,"time_elapsed":57510,"internal_node_id":"0.0-2.0-0.41"},{"rt":1197,"stimulus":"images/Tree/With_Backgrounds/difficulty8_image4.png","response":6,"category":"Tree","background_difficulty":"8","image_path":"images/Tree/With_Backgrounds/difficulty8_image4.png","trial_type":"image-button-response","trial_index":44,"time_elapsed":58708,"internal_node_id":"0.0-2.0-0.42"},{"rt":1161,"stimulus":"images/Other/With_Backgrounds/difficulty8_image3.png","response":7,"category":"Other","background_difficulty":"8","image_path":"images/Other/With_Backgrounds/difficulty8_image3.png","trial_type":"image-button-response","trial_index":45,"time_elapsed":59870,"internal_node_id":"0.0-2.0-0.43"},{"rt":1361,"stimulus":"images/Other/With_Backgrounds/difficulty2_image0.png","response":7,"category":"Other","background_difficulty":"2","image_path":"images/Other/With_Backgrounds/difficulty2_image0.png","trial_type":"image-button-response","trial_index":46,"time_elapsed":61233,"internal_node_id":"0.0-2.0-0.44"},{"rt":1173,"stimulus":"images/Broccoli/With_Backgrounds/difficulty5_image8.png","response":1,"category":"Broccoli","background_difficulty":"5","image_path":"images/Broccoli/With_Backgrounds/difficulty5_image8.png","trial_type":"image-button-response","trial_index":47,"time_elapsed":62407,"internal_node_id":"0.0-2.0-0.45"},{"rt":1130,"stimulus":"images/Car/With_Backgrounds/difficulty4_image3.png","response":2,"category":"Car","background_difficulty":"4","image_path":"images/Car/With_Backgrounds/difficulty4_image3.png","trial_type":"image-button-response","trial_index":48,"time_elapsed":63538,"internal_node_id":"0.0-2.0-0.46"},{"rt":1031,"stimulus":"images/Car/With_Backgrounds/difficulty5_image6.png","response":2,"category":"Car","background_difficulty":"5","image_path":"images/Car/With_Backgrounds/difficulty5_image6.png","trial_type":"image-button-response","trial_index":49,"time_elapsed":64570,"internal_node_id":"0.0-2.0-0.47"},{"rt":1119,"stimulus":"images/Boat/With_Backgrounds/difficulty7_image4.png","response":0,"category":"Boat","background_difficulty":"7","image_path":"images/Boat/With_Backgrounds/difficulty7_image4.png","trial_type":"image-button-response","trial_index":50,"time_elapsed":65690,"internal_node_id":"0.0-2.0-0.48"},{"rt":1054,"stimulus":"images/Human/With_Backgrounds/difficulty2_image9.png","response":5,"category":"Human","background_difficulty":"2","image_path":"images/Human/With_Backgrounds/difficulty2_image9.png","trial_type":"image-button-response","trial_index":51,"time_elapsed":66745,"internal_node_id":"0.0-2.0-0.49"},{"rt":886,"stimulus":"images/Dog/With_Backgrounds/difficulty4_image1.png","response":4,"category":"Dog","background_difficulty":"4","image_path":"images/Dog/With_Backgrounds/difficulty4_image1.png","trial_type":"image-button-response","trial_index":52,"time_elapsed":67632,"internal_node_id":"0.0-2.0-0.50"},{"rt":960,"stimulus":"images/Tree/With_Backgrounds/difficulty4_image6.png","response":6,"category":"Tree","background_difficulty":"4","image_path":"images/Tree/With_Backgrounds/difficulty4_image6.png","trial_type":"image-button-response","trial_index":53,"time_elapsed":68593,"internal_node_id":"0.0-2.0-0.51"},{"rt":1103,"stimulus":"images/Car/With_Backgrounds/difficulty0_image5.png","response":2,"category":"Car","background_difficulty":"0","image_path":"images/Car/With_Backgrounds/difficulty0_image5.png","trial_type":"image-button-response","trial_index":54,"time_elapsed":69697,"internal_node_id":"0.0-2.0-0.52"},{"rt":1000,"stimulus":"images/Dog/With_Backgrounds/difficulty5_image7.png","response":4,"category":"Dog","background_difficulty":"5","image_path":"images/Dog/With_Backgrounds/difficulty5_image7.png","trial_type":"image-button-response","trial_index":55,"time_elapsed":70697,"internal_node_id":"0.0-2.0-0.53"},{"rt":917,"stimulus":"images/Broccoli/With_Backgrounds/difficulty7_image7.png","response":1,"category":"Broccoli","background_difficulty":"7","image_path":"images/Broccoli/With_Backgrounds/difficulty7_image7.png","trial_type":"image-button-response","trial_index":56,"time_elapsed":71615,"internal_node_id":"0.0-2.0-0.54"},{"rt":1118,"stimulus":"images/Human/With_Backgrounds/difficulty8_image5.png","response":5,"category":"Human","background_difficulty":"8","image_path":"images/Human/With_Backgrounds/difficulty8_image5.png","trial_type":"image-button-response","trial_index":57,"time_elapsed":72734,"internal_node_id":"0.0-2.0-0.55"},{"rt":960,"stimulus":"images/Dog/With_Backgrounds/difficulty8_image9.png","response":4,"category":"Dog","background_difficulty":"8","image_path":"images/Dog/With_Backgrounds/difficulty8_image9.png","trial_type":"image-button-response","trial_index":58,"time_elapsed":73695,"internal_node_id":"0.0-2.0-0.56"},{"rt":1047,"stimulus":"images/Cat/With_Backgrounds/difficulty1_image6.png","response":3,"category":"Cat","background_difficulty":"1","image_path":"images/Cat/With_Backgrounds/difficulty1_image6.png","trial_type":"image-button-response","trial_index":59,"time_elapsed":74744,"internal_node_id":"0.0-2.0-0.57"},{"rt":925,"stimulus":"images/Broccoli/With_Backgrounds/difficulty3_image2.png","response":1,"category":"Broccoli","background_difficulty":"3","image_path":"images/Broccoli/With_Backgrounds/difficulty3_image2.png","trial_type":"image-button-response","trial_index":60,"time_elapsed":75669,"internal_node_id":"0.0-2.0-0.58"},{"rt":802,"stimulus":"images/Boat/With_Backgrounds/difficulty4_image7.png","response":0,"category":"Boat","background_difficulty":"4","image_path":"images/Boat/With_Backgrounds/difficulty4_image7.png","trial_type":"image-button-response","trial_index":61,"time_elapsed":76473,"internal_node_id":"0.0-2.0-0.59"},{"rt":960,"stimulus":"images/Cat/With_Backgrounds/difficulty0_image5.png","response":3,"category":"Cat","background_difficulty":"0","image_path":"images/Cat/With_Backgrounds/difficulty0_image5.png","trial_type":"image-button-response","trial_index":62,"time_elapsed":77434,"internal_node_id":"0.0-2.0-0.60"},{"rt":1181,"stimulus":"images/Other/With_Backgrounds/difficulty3_image4.png","response":7,"category":"Other","background_difficulty":"3","image_path":"images/Other/With_Backgrounds/difficulty3_image4.png","trial_type":"image-button-response","trial_index":63,"time_elapsed":78617,"internal_node_id":"0.0-2.0-0.61"},{"rt":1239,"stimulus":"images/Other/With_Backgrounds/difficulty4_image9.png","response":7,"category":"Other","background_difficulty":"4","image_path":"images/Other/With_Backgrounds/difficulty4_image9.png","trial_type":"image-button-response","trial_index":64,"time_elapsed":79857,"internal_node_id":"0.0-2.0-0.62"},{"rt":1047,"stimulus":"images/Human/With_Backgrounds/difficulty3_image3.png","response":5,"category":"Human","background_difficulty":"3","image_path":"images/Human/With_Backgrounds/difficulty3_image3.png","trial_type":"image-button-response","trial_index":65,"time_elapsed":80905,"internal_node_id":"0.0-2.0-0.63"},{"rt":1103,"stimulus":"images/Cat/With_Backgrounds/difficulty7_image4.png","response":3,"category":"Cat","background_difficulty":"7","image_path":"images/Cat/With_Backgrounds/difficulty7_image4.png","trial_type":"image-button-response","trial_index":66,"time_elapsed":82009,"internal_node_id":"0.0-2.0-0.64"},{"rt":865,"stimulus":"images/Broccoli/With_Backgrounds/difficulty2_image1.png","response":1,"category":"Broccoli","background_difficulty":"2","image_path":"images/Broccoli/With_Backgrounds/difficulty2_image1.png","trial_type":"image-button-response","trial_index":67,"time_elapsed":82875,"internal_node_id":"0.0-2.0-0.65"},{"rt":1319,"stimulus":"images/Other/With_Backgrounds/difficulty7_image7.png","response":7,"category":"Other","background_difficulty":"7","image_path":"images/Other/With_Backgrounds/difficulty7_image7.png","trial_type":"image-button-response","trial_index":68,"time_elapsed":84196,"internal_node_id":"0.0-2.0-0.66"},{"rt":1370,"stimulus":"images/Boat/With_Backgrounds/difficulty5_image1.png","response":0,"category":"Boat","background_difficulty":"5","image_path":"images/Boat/With_Backgrounds/difficulty5_image1.png","trial_type":"image-button-response","trial_index":69,"time_elapsed":85566,"internal_node_id":"0.0-2.0-0.67"},{"rt":937,"stimulus":"images/Cat/With_Backgrounds/difficulty8_image7.png","response":3,"category":"Cat","background_difficulty":"8","image_path":"images/Cat/With_Backgrounds/difficulty8_image7.png","trial_type":"image-button-response","trial_index":70,"time_elapsed":86504,"internal_node_id":"0.0-2.0-0.68"},{"rt":1130,"stimulus":"images/Boat/With_Backgrounds/difficulty6_image9.png","response":0,"category":"Boat","background_difficulty":"6","image_path":"images/Boat/With_Backgrounds/difficulty6_image9.png","trial_type":"image-button-response","trial_index":71,"time_elapsed":87635,"internal_node_id":"0.0-2.0-0.69"},{"rt":921,"stimulus":"images/Car/With_Backgrounds/difficulty6_image0.png","response":2,"category":"Car","background_difficulty":"6","image_path":"images/Car/With_Backgrounds/difficulty6_image0.png","trial_type":"image-button-response","trial_index":72,"time_elapsed":88557,"internal_node_id":"0.0-2.0-0.70"},{"rt":1244,"stimulus":"images/Other/With_Backgrounds/difficulty6_image6.png","response":7,"category":"Other","background_difficulty":"6","image_path":"images/Other/With_Backgrounds/difficulty6_image6.png","trial_type":"image-button-response","trial_index":73,"time_elapsed":89802,"internal_node_id":"0.0-2.0-0.71"},{"rt":732,"stimulus":["<h2>Press the button below to end experiment.</h2><p>Thank you for participating!</p>"],"response":0,"trial_type":"html-button-response","trial_index":74,"time_elapsed":90535,"internal_node_id":"0.0-3.0"}]