[{"success":true,"timeout":false,"failed_images":[],"failed_audio":[],"failed_video":[],"trial_type":"preload","trial_index":0,"time_elapsed":1535,"internal_node_id":"0.0-0.0"},{"rt":9914,"stimulus":["<h2>Noisy background image classification</h2><p>In this experiment you will briefly see images on top of colored squares of various sizes.</p><p>Your task is to report what each image is, selecting \"None of the Above\" if none of the given options are correct.</p> <p>The possible options are <strong>Boat</strong>, <strong>Broccoli</strong>, <strong>Car</strong>, <strong>Cat</strong>, <strong>Dog</strong>, <strong>Human</strong>, <strong>Tree</strong>, and <strong>None of the Above</strong>"],"response":0,"trial_type":"html-button-response","trial_index":1,"time_elapsed":11451,"internal_node_id":"0.0-1.0"},{"rt":2875,"stimulus":"images/Broccoli/With_Backgrounds/difficulty5_image9.png","response":1,"category":"Broccoli","background_difficulty":"5","image_path":"images/Broccoli/With_Backgrounds/difficulty5_image9.png","trial_type":"image-button-response","trial_index":2,"time_elapsed":14339,"internal_node_id":"0.0-2.0-0.0"},{"rt":2045,"stimulus":"images/Tree/With_Backgrounds/difficulty5_image1.png","response":6,"category":"Tree","background_difficulty":"5","image_path":"images/Tree/With_Backgrounds/difficulty5_image1.png","trial_type":"image-button-response","trial_index":3,"time_elapsed":16387,"internal_node_id":"0.0-2.0-0.1"},{"rt":1481,"stimulus":"images/Tree/With_Backgrounds/difficulty6_image5.png","response":6,"category":"Tree","background_difficulty":"6","image_path":"images/Tree/With_Backgrounds/difficulty6_image5.png","trial_type":"image-button-response","trial_index":4,"time_elapsed":17870,"internal_node_id":"0.0-2.0-0.2"},{"rt":1547,"stimulus":"images/Dog/With_Backgrounds/difficulty5_image5.png","response":4,"category":"Dog","background_difficulty":"5","image_path":"images/Dog/With_Backgrounds/difficulty5_image5.png","trial_type":"image-button-response","trial_index":5,"time_elapsed":19419,"internal_node_id":"0.0-2.0-0.3"},{"rt":1545,"stimulus":"images/Cat/With_Backgrounds/difficulty8_image6.png","response":3,"category":"Cat","background_difficulty":"8","image_path":"images/Cat/With_Backgrounds/difficulty8_image6.png","trial_type":"image-button-response","trial_index":6,"time_elapsed":20966,"internal_node_id":"0.0-2.0-0.4"},{"rt":2165,"stimulus":"images/Boat/With_Backgrounds/difficulty6_image8.png","response":0,"category":"Boat","background_difficulty":"6","image_path":"images/Boat/With_Backgrounds/difficulty6_image8.png","trial_type":"image-button-response","trial_index":7,"time_elapsed":23133,"internal_node_id":"0.0-2.0-0.5"},{"rt":2030,"stimulus":"images/Broccoli/With_Backgrounds/difficulty8_image7.png","response":1,"category":"Broccoli","background_difficulty":"8","image_path":"images/Broccoli/With_Backgrounds/difficulty8_image7.png","trial_type":"image-button-response","trial_index":8,"time_elapsed":25165,"internal_node_id":"0.0-2.0-0.6"},{"rt":1570,"stimulus":"images/Dog/With_Backgrounds/difficulty8_image4.png","response":4,"category":"Dog","background_difficulty":"8","image_path":"images/Dog/With_Backgrounds/difficulty8_image4.png","trial_type":"image-button-response","trial_index":9,"time_elapsed":26737,"internal_node_id":"0.0-2.0-0.7"},{"rt":1606,"stimulus":"images/Human/With_Backgrounds/difficulty5_image3.png","response":5,"category":"Human","background_difficulty":"5","image_path":"images/Human/With_Backgrounds/difficulty5_image3.png","trial_type":"image-button-response","trial_index":10,"time_elapsed":28345,"internal_node_id":"0.0-2.0-0.8"},{"rt":4044,"stimulus":"images/Other/With_Backgrounds/difficulty7_image7.png","response":7,"category":"Other","background_difficulty":"7","image_path":"images/Other/With_Backgrounds/difficulty7_image7.png","trial_type":"image-button-response","trial_index":11,"time_elapsed":32391,"internal_node_id":"0.0-2.0-0.9"},{"rt":1610,"stimulus":"images/Cat/With_Backgrounds/difficulty3_image1.png","response":3,"category":"Cat","background_difficulty":"3","image_path":"images/Cat/With_Backgrounds/difficulty3_image1.png","trial_type":"image-button-response","trial_index":12,"time_elapsed":34003,"internal_node_id":"0.0-2.0-0.10"},{"rt":1668,"stimulus":"images/Tree/With_Backgrounds/difficulty7_image6.png","response":6,"category":"Tree","background_difficulty":"7","image_path":"images/Tree/With_Backgrounds/difficulty7_image6.png","trial_type":"image-button-response","trial_index":13,"time_elapsed":35673,"internal_node_id":"0.0-2.0-0.11"},{"rt":1942,"stimulus":"images/Boat/With_Backgrounds/difficulty5_image2.png","response":0,"category":"Boat","background_difficulty":"5","image_path":"images/Boat/With_Backgrounds/difficulty5_image2.png","trial_type":"image-button-response","trial_index":14,"time_elapsed":37618,"internal_node_id":"0.0-2.0-0.12"},{"rt":1549,"stimulus":"images/Cat/With_Backgrounds/difficulty7_image8.png","response":3,"category":"Cat","background_difficulty":"7","image_path":"images/Cat/With_Backgrounds/difficulty7_image8.png","trial_type":"image-button-response","trial_index":15,"time_elapsed":39169,"internal_node_id":"0.0-2.0-0.13"},{"rt":1361,"stimulus":"images/Dog/With_Backgrounds/difficulty0_image7.png","response":4,"category":"Dog","background_difficulty":"0","image_path":"images/Dog/With_Backgrounds/difficulty0_image7.png","trial_type":"image-button-response","trial_index":16,"time_elapsed":40532,"internal_node_id":"0.0-2.0-0.14"},{"rt":2431,"stimulus":"images/Car/With_Backgrounds/difficulty7_image4.png","response":2,"category":"Car","background_difficulty":"7","image_path":"images/Car/With_Backgrounds/difficulty7_image4.png","trial_type":"image-button-response","trial_index":17,"time_elapsed":42965,"internal_node_id":"0.0-2.0-0.15"},{"rt":3779,"stimulus":"images/Other/With_Backgrounds/difficulty8_image1.png","response":7,"category":"Other","background_difficulty":"8","image_path":"images/Other/With_Backgrounds/difficulty8_image1.png","trial_type":"image-button-response","trial_index":18,"time_elapsed":46747,"internal_node_id":"0.0-2.0-0.16"},{"rt":2159,"stimulus":"images/Boat/With_Backgrounds/difficulty4_image6.png","response":0,"category":"Boat","background_difficulty":"4","image_path":"images/Boat/With_Backgrounds/difficulty4_image6.png","trial_type":"image-button-response","trial_index":19,"time_elapsed":48907,"internal_node_id":"0.0-2.0-0.17"},{"rt":1667,"stimulus":"images/Tree/With_Backgrounds/difficulty2_image8.png","response":6,"category":"Tree","background_difficulty":"2","image_path":"images/Tree/With_Backgrounds/difficulty2_image8.png","trial_type":"image-button-response","trial_index":20,"time_elapsed":50576,"internal_node_id":"0.0-2.0-0.18"},{"rt":1848,"stimulus":"images/Boat/With_Backgrounds/difficulty7_image5.png","response":0,"category":"Boat","background_difficulty":"7","image_path":"images/Boat/With_Backgrounds/difficulty7_image5.png","trial_type":"image-button-response","trial_index":21,"time_elapsed":52426,"internal_node_id":"0.0-2.0-0.19"},{"rt":1795,"stimulus":"images/Tree/With_Backgrounds/difficulty4_image4.png","response":6,"category":"Tree","background_difficulty":"4","image_path":"images/Tree/With_Backgrounds/difficulty4_image4.png","trial_type":"image-button-response","trial_index":22,"time_elapsed":54223,"internal_node_id":"0.0-2.0-0.20"},{"rt":1679,"stimulus":"images/Human/With_Backgrounds/difficulty6_image8.png","response":5,"category":"Human","background_difficulty":"6","image_path":"images/Human/With_Backgrounds/difficulty6_image8.png","trial_type":"image-button-response","trial_index":23,"time_elapsed":55904,"internal_node_id":"0.0-2.0-0.21"},{"rt":1261,"stimulus":"images/Human/With_Backgrounds/difficulty7_image7.png","response":5,"category":"Human","background_difficulty":"7","image_path":"images/Human/With_Backgrounds/difficulty7_image7.png","trial_type":"image-button-response","trial_index":24,"time_elapsed":57168,"internal_node_id":"0.0-2.0-0.22"},{"rt":1516,"stimulus":"images/Car/With_Backgrounds/difficulty2_image9.png","response":2,"category":"Car","background_difficulty":"2","image_path":"images/Car/With_Backgrounds/difficulty2_image9.png","trial_type":"image-button-response","trial_index":25,"time_elapsed":58685,"internal_node_id":"0.0-2.0-0.23"},{"rt":1361,"stimulus":"images/Human/With_Backgrounds/difficulty2_image1.png","response":5,"category":"Human","background_difficulty":"2","image_path":"images/Human/With_Backgrounds/difficulty2_image1.png","trial_type":"image-button-response","trial_index":26,"time_elapsed":60049,"internal_node_id":"0.0-2.0-0.24"},{"rt":1483,"stimulus":"images/Cat/With_Backgrounds/difficulty2_image3.png","response":3,"category":"Cat","background_difficulty":"2","image_path":"images/Cat/With_Backgrounds/difficulty2_image3.png","trial_type":"image-button-response","trial_index":27,"time_elapsed":61533,"internal_node_id":"0.0-2.0-0.25"},{"rt":2163,"stimulus":"images/Car/With_Backgrounds/difficulty1_image7.png","response":2,"category":"Car","background_difficulty":"1","image_path":"images/Car/With_Backgrounds/difficulty1_image7.png","trial_type":"image-button-response","trial_index":28,"time_elapsed":63698,"internal_node_id":"0.0-2.0-0.26"},{"rt":1931,"stimulus":"images/Boat/With_Backgrounds/difficulty0_image9.png","response":0,"category":"Boat","background_difficulty":"0","image_path":"images/Boat/With_Backgrounds/difficulty0_image9.png","trial_type":"image-button-response","trial_index":29,"time_elapsed":65631,"internal_node_id":"0.0-2.0-0.27"},{"rt":1645,"stimulus":"images/Broccoli/With_Backgrounds/difficulty4_image3.png","response":1,"category":"Broccoli","background_difficulty":"4","image_path":"images/Broccoli/With_Backgrounds/difficulty4_image3.png","trial_type":"image-button-response","trial_index":30,"time_elapsed":67278,"internal_node_id":"0.0-2.0-0.28"},{"rt":1745,"stimulus":"images/Boat/With_Backgrounds/difficulty3_image0.png","response":0,"category":"Boat","background_difficulty":"3","image_path":"images/Boat/With_Backgrounds/difficulty3_image0.png","trial_type":"image-button-response","trial_index":31,"time_elapsed":69025,"internal_node_id":"0.0-2.0-0.29"},{"rt":2330,"stimulus":"images/Other/With_Backgrounds/difficulty6_image6.png","response":7,"category":"Other","background_difficulty":"6","image_path":"images/Other/With_Backgrounds/difficulty6_image6.png","trial_type":"image-button-response","trial_index":32,"time_elapsed":71357,"internal_node_id":"0.0-2.0-0.30"},{"rt":1581,"stimulus":"images/Dog/With_Backgrounds/difficulty3_image8.png","response":4,"category":"Dog","background_difficulty":"3","image_path":"images/Dog/With_Backgrounds/difficulty3_image8.png","trial_type":"image-button-response","trial_index":33,"time_elapsed":72939,"internal_node_id":"0.0-2.0-0.31"},{"rt":1581,"stimulus":"images/Car/With_Backgrounds/difficulty8_image0.png","response":2,"category":"Car","background_difficulty":"8","image_path":"images/Car/With_Backgrounds/difficulty8_image0.png","trial_type":"image-button-response","trial_index":34,"time_elapsed":74522,"internal_node_id":"0.0-2.0-0.32"},{"rt":1647,"stimulus":"images/Broccoli/With_Backgrounds/difficulty2_image4.png","response":1,"category":"Broccoli","background_difficulty":"2","image_path":"images/Broccoli/With_Backgrounds/difficulty2_image4.png","trial_type":"image-button-response","trial_index":35,"time_elapsed":76171,"internal_node_id":"0.0-2.0-0.33"},{"rt":1145,"stimulus":"images/Broccoli/With_Backgrounds/difficulty3_image2.png","response":1,"category":"Broccoli","background_difficulty":"3","image_path":"images/Broccoli/With_Backgrounds/difficulty3_image2.png","trial_type":"image-button-response","trial_index":36,"time_elapsed":77318,"internal_node_id":"0.0-2.0-0.34"},{"rt":1116,"stimulus":"images/Broccoli/With_Backgrounds/difficulty1_image6.png","response":1,"category":"Broccoli","background_difficulty":"1","image_path":"images/Broccoli/With_Backgrounds/difficulty1_image6.png","trial_type":"image-button-response","trial_index":37,"time_elapsed":78436,"internal_node_id":"0.0-2.0-0.35"},{"rt":1509,"stimulus":"images/Dog/With_Backgrounds/difficulty4_image3.png","response":4,"category":"Dog","background_difficulty":"4","image_path":"images/Dog/With_Backgrounds/difficulty4_image3.png","trial_type":"image-button-response","trial_index":38,"time_elapsed":79947,"internal_node_id":"0.0-2.0-0.36"},{"rt":1815,"stimulus":"images/Boat/With_Backgrounds/difficulty1_image7.png","response":0,"category":"Boat","background_difficulty":"1","image_path":"images/Boat/With_Backgrounds/difficulty1_image7.png","trial_type":"image-button-response","trial_index":39,"time_elapsed":81765,"internal_node_id":"0.0-2.0-0.37"},{"rt":1678,"stimulus":"images/Dog/With_Backgrounds/difficulty2_image1.png","response":4,"category":"Dog","background_difficulty":"2","image_path":"images/Dog/With_Backgrounds/difficulty2_image1.png","trial_type":"image-button-response","trial_index":40,"time_elapsed":83444,"internal_node_id":"0.0-2.0-0.38"},{"rt":1880,"stimulus":"images/Other/With_Backgrounds/difficulty4_image3.png","response":7,"category":"Other","background_difficulty":"4","image_path":"images/Other/With_Backgrounds/difficulty4_image3.png","trial_type":"image-button-response","trial_index":41,"time_elapsed":85326,"internal_node_id":"0.0-2.0-0.39"},{"rt":1480,"stimulus":"images/Broccoli/With_Backgrounds/difficulty7_image1.png","response":1,"category":"Broccoli","background_difficulty":"7","image_path":"images/Broccoli/With_Backgrounds/difficulty7_image1.png","trial_type":"image-button-response","trial_index":42,"time_elapsed":86809,"internal_node_id":"0.0-2.0-0.40"},{"rt":1582,"stimulus":"images/Car/With_Backgrounds/difficulty6_image6.png","response":2,"category":"Car","background_difficulty":"6","image_path":"images/Car/With_Backgrounds/difficulty6_image6.png","trial_type":"image-button-response","trial_index":43,"time_elapsed":88392,"internal_node_id":"0.0-2.0-0.41"},{"rt":1680,"stimulus":"images/Tree/With_Backgrounds/difficulty1_image9.png","response":6,"category":"Tree","background_difficulty":"1","image_path":"images/Tree/With_Backgrounds/difficulty1_image9.png","trial_type":"image-button-response","trial_index":44,"time_elapsed":90075,"internal_node_id":"0.0-2.0-0.42"},{"rt":2263,"stimulus":"images/Other/With_Backgrounds/difficulty5_image9.png","response":7,"category":"Other","background_difficulty":"5","image_path":"images/Other/With_Backgrounds/difficulty5_image9.png","trial_type":"image-button-response","trial_index":45,"time_elapsed":92339,"internal_node_id":"0.0-2.0-0.43"},{"rt":1811,"stimulus":"images/Human/With_Backgrounds/difficulty1_image0.png","response":5,"category":"Human","background_difficulty":"1","image_path":"images/Human/With_Backgrounds/difficulty1_image0.png","trial_type":"image-button-response","trial_index":46,"time_elapsed":94152,"internal_node_id":"0.0-2.0-0.44"},{"rt":1134,"stimulus":"images/Human/With_Backgrounds/difficulty0_image4.png","response":5,"category":"Human","background_difficulty":"0","image_path":"images/Human/With_Backgrounds/difficulty0_image4.png","trial_type":"image-button-response","trial_index":47,"time_elapsed":95288,"internal_node_id":"0.0-2.0-0.45"},{"rt":1579,"stimulus":"images/Boat/With_Backgrounds/difficulty8_image4.png","response":0,"category":"Boat","background_difficulty":"8","image_path":"images/Boat/With_Backgrounds/difficulty8_image4.png","trial_type":"image-button-response","trial_index":48,"time_elapsed":96870,"internal_node_id":"0.0-2.0-0.46"},{"rt":2077,"stimulus":"images/Cat/With_Backgrounds/difficulty4_image9.png","response":3,"category":"Cat","background_difficulty":"4","image_path":"images/Cat/With_Backgrounds/difficulty4_image9.png","trial_type":"image-button-response","trial_index":49,"time_elapsed":98949,"internal_node_id":"0.0-2.0-0.47"},{"rt":1845,"stimulus":"images/Other/With_Backgrounds/difficulty2_image8.png","response":7,"category":"Other","background_difficulty":"2","image_path":"images/Other/With_Backgrounds/difficulty2_image8.png","trial_type":"image-button-response","trial_index":50,"time_elapsed":100796,"internal_node_id":"0.0-2.0-0.48"},{"rt":1632,"stimulus":"images/Other/With_Backgrounds/difficulty3_image0.png","response":7,"category":"Other","background_difficulty":"3","image_path":"images/Other/With_Backgrounds/difficulty3_image0.png","trial_type":"image-button-response","trial_index":51,"time_elapsed":102429,"internal_node_id":"0.0-2.0-0.49"},{"rt":1767,"stimulus":"images/Broccoli/With_Backgrounds/difficulty6_image0.png","response":1,"category":"Broccoli","background_difficulty":"6","image_path":"images/Broccoli/With_Backgrounds/difficulty6_image0.png","trial_type":"image-button-response","trial_index":52,"time_elapsed":104197,"internal_node_id":"0.0-2.0-0.50"},{"rt":1877,"stimulus":"images/Tree/With_Backgrounds/difficulty0_image2.png","response":6,"category":"Tree","background_difficulty":"0","image_path":"images/Tree/With_Backgrounds/difficulty0_image2.png","trial_type":"image-button-response","trial_index":53,"time_elapsed":106077,"internal_node_id":"0.0-2.0-0.51"},{"rt":1762,"stimulus":"images/Car/With_Backgrounds/difficulty4_image3.png","response":2,"category":"Car","background_difficulty":"4","image_path":"images/Car/With_Backgrounds/difficulty4_image3.png","trial_type":"image-button-response","trial_index":54,"time_elapsed":107840,"internal_node_id":"0.0-2.0-0.52"},{"rt":1647,"stimulus":"images/Human/With_Backgrounds/difficulty8_image5.png","response":5,"category":"Human","background_difficulty":"8","image_path":"images/Human/With_Backgrounds/difficulty8_image5.png","trial_type":"image-button-response","trial_index":55,"time_elapsed":109490,"internal_node_id":"0.0-2.0-0.53"},{"rt":1499,"stimulus":"images/Cat/With_Backgrounds/difficulty1_image7.png","response":3,"category":"Cat","background_difficulty":"1","image_path":"images/Cat/With_Backgrounds/difficulty1_image7.png","trial_type":"image-button-response","trial_index":56,"time_elapsed":110991,"internal_node_id":"0.0-2.0-0.54"},{"rt":1347,"stimulus":"images/Dog/With_Backgrounds/difficulty6_image0.png","response":4,"category":"Dog","background_difficulty":"6","image_path":"images/Dog/With_Backgrounds/difficulty6_image0.png","trial_type":"image-button-response","trial_index":57,"time_elapsed":112340,"internal_node_id":"0.0-2.0-0.55"},{"rt":1328,"stimulus":"images/Human/With_Backgrounds/difficulty4_image9.png","response":5,"category":"Human","background_difficulty":"4","image_path":"images/Human/With_Backgrounds/difficulty4_image9.png","trial_type":"image-button-response","trial_index":58,"time_elapsed":113670,"internal_node_id":"0.0-2.0-0.56"},{"rt":1456,"stimulus":"images/Tree/With_Backgrounds/difficulty3_image7.png","response":6,"category":"Tree","background_difficulty":"3","image_path":"images/Tree/With_Backgrounds/difficulty3_image7.png","trial_type":"image-button-response","trial_index":59,"time_elapsed":115128,"internal_node_id":"0.0-2.0-0.57"},{"rt":1555,"stimulus":"images/Cat/With_Backgrounds/difficulty5_image0.png","response":3,"category":"Cat","background_difficulty":"5","image_path":"images/Cat/With_Backgrounds/difficulty5_image0.png","trial_type":"image-button-response","trial_index":60,"time_elapsed":116685,"internal_node_id":"0.0-2.0-0.58"},{"rt":1331,"stimulus":"images/Dog/With_Backgrounds/difficulty1_image9.png","response":4,"category":"Dog","background_difficulty":"1","image_path":"images/Dog/With_Backgrounds/difficulty1_image9.png","trial_type":"image-button-response","trial_index":61,"time_elapsed":118018,"internal_node_id":"0.0-2.0-0.59"},{"rt":1761,"stimulus":"images/Boat/With_Backgrounds/difficulty2_image3.png","response":0,"category":"Boat","background_difficulty":"2","image_path":"images/Boat/With_Backgrounds/difficulty2_image3.png","trial_type":"image-button-response","trial_index":62,"time_elapsed":119781,"internal_node_id":"0.0-2.0-0.60"},{"rt":2213,"stimulus":"images/Cat/With_Backgrounds/difficulty6_image5.png","response":3,"category":"Cat","background_difficulty":"6","image_path":"images/Cat/With_Backgrounds/difficulty6_image5.png","trial_type":"image-button-response","trial_index":63,"time_elapsed":121997,"internal_node_id":"0.0-2.0-0.61"},{"rt":1479,"stimulus":"images/Human/With_Backgrounds/difficulty3_image2.png","response":5,"category":"Human","background_difficulty":"3","image_path":"images/Human/With_Backgrounds/difficulty3_image2.png","trial_type":"image-button-response","trial_index":64,"time_elapsed":123477,"internal_node_id":"0.0-2.0-0.62"},{"rt":1932,"stimulus":"images/Cat/With_Backgrounds/difficulty0_image4.png","response":3,"category":"Cat","background_difficulty":"0","image_path":"images/Cat/With_Backgrounds/difficulty0_image4.png","trial_type":"image-button-response","trial_index":65,"time_elapsed":125411,"internal_node_id":"0.0-2.0-0.63"},{"rt":1462,"stimulus":"images/Car/With_Backgrounds/difficulty5_image1.png","response":2,"category":"Car","background_difficulty":"5","image_path":"images/Car/With_Backgrounds/difficulty5_image1.png","trial_type":"image-button-response","trial_index":66,"time_elapsed":126875,"internal_node_id":"0.0-2.0-0.64"},{"rt":1140,"stimulus":"images/Car/With_Backgrounds/difficulty0_image2.png","response":2,"category":"Car","background_difficulty":"0","image_path":"images/Car/With_Backgrounds/difficulty0_image2.png","trial_type":"image-button-response","trial_index":67,"time_elapsed":128017,"internal_node_id":"0.0-2.0-0.65"},{"rt":1088,"stimulus":"images/Car/With_Backgrounds/difficulty3_image8.png","response":2,"category":"Car","background_difficulty":"3","image_path":"images/Car/With_Backgrounds/difficulty3_image8.png","trial_type":"image-button-response","trial_index":68,"time_elapsed":129108,"internal_node_id":"0.0-2.0-0.66"},{"rt":1464,"stimulus":"images/Other/With_Backgrounds/difficulty1_image5.png","response":7,"category":"Other","background_difficulty":"1","image_path":"images/Other/With_Backgrounds/difficulty1_image5.png","trial_type":"image-button-response","trial_index":69,"time_elapsed":130574,"internal_node_id":"0.0-2.0-0.67"},{"rt":1727,"stimulus":"images/Broccoli/With_Backgrounds/difficulty0_image8.png","response":1,"category":"Broccoli","background_difficulty":"0","image_path":"images/Broccoli/With_Backgrounds/difficulty0_image8.png","trial_type":"image-button-response","trial_index":70,"time_elapsed":132303,"internal_node_id":"0.0-2.0-0.68"},{"rt":1898,"stimulus":"images/Other/With_Backgrounds/difficulty0_image4.png","response":7,"category":"Other","background_difficulty":"0","image_path":"images/Other/With_Backgrounds/difficulty0_image4.png","trial_type":"image-button-response","trial_index":71,"time_elapsed":134203,"internal_node_id":"0.0-2.0-0.69"},{"rt":1611,"stimulus":"images/Dog/With_Backgrounds/difficulty7_image2.png","response":4,"category":"Dog","background_difficulty":"7","image_path":"images/Dog/With_Backgrounds/difficulty7_image2.png","trial_type":"image-button-response","trial_index":72,"time_elapsed":135817,"internal_node_id":"0.0-2.0-0.70"},{"rt":1796,"stimulus":"images/Tree/With_Backgrounds/difficulty8_image0.png","response":6,"category":"Tree","background_difficulty":"8","image_path":"images/Tree/With_Backgrounds/difficulty8_image0.png","trial_type":"image-button-response","trial_index":73,"time_elapsed":137615,"internal_node_id":"0.0-2.0-0.71"},{"rt":1515,"stimulus":["<h2>Press the button below to end experiment.</h2><p>Thank you for participating!</p>"],"response":0,"trial_type":"html-button-response","trial_index":74,"time_elapsed":139131,"internal_node_id":"0.0-3.0"}]