[{"success":true,"timeout":false,"failed_images":[],"failed_audio":[],"failed_video":[],"trial_type":"preload","trial_index":0,"time_elapsed":1709,"internal_node_id":"0.0-0.0"},{"rt":16865,"stimulus":["<h2>Noisy background image classification</h2><p>In this experiment you will briefly see images on top of colored squares of various sizes.</p><p>Your task is to report what each image is, selecting \"None of the Above\" if none of the given options are correct.</p> <p>The possible options are <strong>Boat</strong>, <strong>Broccoli</strong>, <strong>Car</strong>, <strong>Cat</strong>, <strong>Dog</strong>, <strong>Human</strong>, <strong>Tree</strong>, and <strong>None of the Above</strong>"],"response":0,"trial_type":"html-button-response","trial_index":1,"time_elapsed":18576,"internal_node_id":"0.0-1.0"},{"rt":5686,"stimulus":"images/Other/With_Backgrounds/difficulty5_image7.png","response":7,"category":"Other","background_difficulty":"5","image_path":"images/Other/With_Backgrounds/difficulty5_image7.png","trial_type":"image-button-response","trial_index":2,"time_elapsed":24280,"internal_node_id":"0.0-2.0-0.0"},{"rt":2277,"stimulus":"images/Dog/With_Backgrounds/difficulty0_image4.png","response":4,"category":"Dog","background_difficulty":"0","image_path":"images/Dog/With_Backgrounds/difficulty0_image4.png","trial_type":"image-button-response","trial_index":3,"time_elapsed":26561,"internal_node_id":"0.0-2.0-0.1"},{"rt":1821,"stimulus":"images/Boat/With_Backgrounds/difficulty1_image7.png","response":0,"category":"Boat","background_difficulty":"1","image_path":"images/Boat/With_Backgrounds/difficulty1_image7.png","trial_type":"image-button-response","trial_index":4,"time_elapsed":28384,"internal_node_id":"0.0-2.0-0.2"},{"rt":1817,"stimulus":"images/Cat/With_Backgrounds/difficulty7_image0.png","response":3,"category":"Cat","background_difficulty":"7","image_path":"images/Cat/With_Backgrounds/difficulty7_image0.png","trial_type":"image-button-response","trial_index":5,"time_elapsed":30204,"internal_node_id":"0.0-2.0-0.3"},{"rt":1505,"stimulus":"images/Dog/With_Backgrounds/difficulty4_image6.png","response":4,"category":"Dog","background_difficulty":"4","image_path":"images/Dog/With_Backgrounds/difficulty4_image6.png","trial_type":"image-button-response","trial_index":6,"time_elapsed":31712,"internal_node_id":"0.0-2.0-0.4"},{"rt":2406,"stimulus":"images/Other/With_Backgrounds/difficulty4_image2.png","response":7,"category":"Other","background_difficulty":"4","image_path":"images/Other/With_Backgrounds/difficulty4_image2.png","trial_type":"image-button-response","trial_index":7,"time_elapsed":34121,"internal_node_id":"0.0-2.0-0.5"},{"rt":1960,"stimulus":"images/Tree/With_Backgrounds/difficulty1_image9.png","response":6,"category":"Tree","background_difficulty":"1","image_path":"images/Tree/With_Backgrounds/difficulty1_image9.png","trial_type":"image-button-response","trial_index":8,"time_elapsed":36084,"internal_node_id":"0.0-2.0-0.6"},{"rt":2090,"stimulus":"images/Human/With_Backgrounds/difficulty6_image6.png","response":5,"category":"Human","background_difficulty":"6","image_path":"images/Human/With_Backgrounds/difficulty6_image6.png","trial_type":"image-button-response","trial_index":9,"time_elapsed":38176,"internal_node_id":"0.0-2.0-0.7"},{"rt":1563,"stimulus":"images/Broccoli/With_Backgrounds/difficulty2_image3.png","response":1,"category":"Broccoli","background_difficulty":"2","image_path":"images/Broccoli/With_Backgrounds/difficulty2_image3.png","trial_type":"image-button-response","trial_index":10,"time_elapsed":39741,"internal_node_id":"0.0-2.0-0.8"},{"rt":1451,"stimulus":"images/Car/With_Backgrounds/difficulty6_image3.png","response":2,"category":"Car","background_difficulty":"6","image_path":"images/Car/With_Backgrounds/difficulty6_image3.png","trial_type":"image-button-response","trial_index":11,"time_elapsed":41194,"internal_node_id":"0.0-2.0-0.9"},{"rt":1501,"stimulus":"images/Tree/With_Backgrounds/difficulty8_image5.png","response":6,"category":"Tree","background_difficulty":"8","image_path":"images/Tree/With_Backgrounds/difficulty8_image5.png","trial_type":"image-button-response","trial_index":12,"time_elapsed":42697,"internal_node_id":"0.0-2.0-0.10"},{"rt":1653,"stimulus":"images/Cat/With_Backgrounds/difficulty3_image8.png","response":3,"category":"Cat","background_difficulty":"3","image_path":"images/Cat/With_Backgrounds/difficulty3_image8.png","trial_type":"image-button-response","trial_index":13,"time_elapsed":44352,"internal_node_id":"0.0-2.0-0.11"},{"rt":1524,"stimulus":"images/Human/With_Backgrounds/difficulty2_image4.png","response":5,"category":"Human","background_difficulty":"2","image_path":"images/Human/With_Backgrounds/difficulty2_image4.png","trial_type":"image-button-response","trial_index":14,"time_elapsed":45878,"internal_node_id":"0.0-2.0-0.12"},{"rt":1635,"stimulus":"images/Other/With_Backgrounds/difficulty8_image3.png","response":7,"category":"Other","background_difficulty":"8","image_path":"images/Other/With_Backgrounds/difficulty8_image3.png","trial_type":"image-button-response","trial_index":15,"time_elapsed":47515,"internal_node_id":"0.0-2.0-0.13"},{"rt":1622,"stimulus":"images/Boat/With_Backgrounds/difficulty5_image0.png","response":0,"category":"Boat","background_difficulty":"5","image_path":"images/Boat/With_Backgrounds/difficulty5_image0.png","trial_type":"image-button-response","trial_index":16,"time_elapsed":49139,"internal_node_id":"0.0-2.0-0.14"},{"rt":1211,"stimulus":"images/Broccoli/With_Backgrounds/difficulty5_image4.png","response":1,"category":"Broccoli","background_difficulty":"5","image_path":"images/Broccoli/With_Backgrounds/difficulty5_image4.png","trial_type":"image-button-response","trial_index":17,"time_elapsed":50352,"internal_node_id":"0.0-2.0-0.15"},{"rt":1591,"stimulus":"images/Dog/With_Backgrounds/difficulty2_image1.png","response":4,"category":"Dog","background_difficulty":"2","image_path":"images/Dog/With_Backgrounds/difficulty2_image1.png","trial_type":"image-button-response","trial_index":18,"time_elapsed":51945,"internal_node_id":"0.0-2.0-0.16"},{"rt":1313,"stimulus":"images/Cat/With_Backgrounds/difficulty5_image9.png","response":3,"category":"Cat","background_difficulty":"5","image_path":"images/Cat/With_Backgrounds/difficulty5_image9.png","trial_type":"image-button-response","trial_index":19,"time_elapsed":53259,"internal_node_id":"0.0-2.0-0.17"},{"rt":1449,"stimulus":"images/Car/With_Backgrounds/difficulty3_image8.png","response":2,"category":"Car","background_difficulty":"3","image_path":"images/Car/With_Backgrounds/difficulty3_image8.png","trial_type":"image-button-response","trial_index":20,"time_elapsed":54711,"internal_node_id":"0.0-2.0-0.18"},{"rt":1637,"stimulus":"images/Boat/With_Backgrounds/difficulty8_image5.png","response":0,"category":"Boat","background_difficulty":"8","image_path":"images/Boat/With_Backgrounds/difficulty8_image5.png","trial_type":"image-button-response","trial_index":21,"time_elapsed":56349,"internal_node_id":"0.0-2.0-0.19"},{"rt":1604,"stimulus":"images/Dog/With_Backgrounds/difficulty8_image7.png","response":4,"category":"Dog","background_difficulty":"8","image_path":"images/Dog/With_Backgrounds/difficulty8_image7.png","trial_type":"image-button-response","trial_index":22,"time_elapsed":57956,"internal_node_id":"0.0-2.0-0.20"},{"rt":1692,"stimulus":"images/Human/With_Backgrounds/difficulty0_image3.png","response":5,"category":"Human","background_difficulty":"0","image_path":"images/Human/With_Backgrounds/difficulty0_image3.png","trial_type":"image-button-response","trial_index":23,"time_elapsed":59650,"internal_node_id":"0.0-2.0-0.21"},{"rt":1409,"stimulus":"images/Boat/With_Backgrounds/difficulty4_image2.png","response":0,"category":"Boat","background_difficulty":"4","image_path":"images/Boat/With_Backgrounds/difficulty4_image2.png","trial_type":"image-button-response","trial_index":24,"time_elapsed":61062,"internal_node_id":"0.0-2.0-0.22"},{"rt":1317,"stimulus":"images/Car/With_Backgrounds/difficulty2_image6.png","response":2,"category":"Car","background_difficulty":"2","image_path":"images/Car/With_Backgrounds/difficulty2_image6.png","trial_type":"image-button-response","trial_index":25,"time_elapsed":62381,"internal_node_id":"0.0-2.0-0.23"},{"rt":1396,"stimulus":"images/Tree/With_Backgrounds/difficulty6_image0.png","response":6,"category":"Tree","background_difficulty":"6","image_path":"images/Tree/With_Backgrounds/difficulty6_image0.png","trial_type":"image-button-response","trial_index":26,"time_elapsed":63779,"internal_node_id":"0.0-2.0-0.24"},{"rt":1873,"stimulus":"images/Tree/With_Backgrounds/difficulty2_image4.png","response":6,"category":"Tree","background_difficulty":"2","image_path":"images/Tree/With_Backgrounds/difficulty2_image4.png","trial_type":"image-button-response","trial_index":27,"time_elapsed":65654,"internal_node_id":"0.0-2.0-0.25"},{"rt":980,"stimulus":"images/Tree/With_Backgrounds/difficulty5_image6.png","response":6,"category":"Tree","background_difficulty":"5","image_path":"images/Tree/With_Backgrounds/difficulty5_image6.png","trial_type":"image-button-response","trial_index":28,"time_elapsed":66636,"internal_node_id":"0.0-2.0-0.26"},{"rt":1358,"stimulus":"images/Boat/With_Backgrounds/difficulty2_image1.png","response":0,"category":"Boat","background_difficulty":"2","image_path":"images/Boat/With_Backgrounds/difficulty2_image1.png","trial_type":"image-button-response","trial_index":29,"time_elapsed":67996,"internal_node_id":"0.0-2.0-0.27"},{"rt":953,"stimulus":"images/Boat/With_Backgrounds/difficulty3_image3.png","response":0,"category":"Boat","background_difficulty":"3","image_path":"images/Boat/With_Backgrounds/difficulty3_image3.png","trial_type":"image-button-response","trial_index":30,"time_elapsed":68951,"internal_node_id":"0.0-2.0-0.28"},{"rt":2138,"stimulus":"images/Other/With_Backgrounds/difficulty0_image1.png","response":7,"category":"Other","background_difficulty":"0","image_path":"images/Other/With_Backgrounds/difficulty0_image1.png","trial_type":"image-button-response","trial_index":31,"time_elapsed":71091,"internal_node_id":"0.0-2.0-0.29"},{"rt":1569,"stimulus":"images/Car/With_Backgrounds/difficulty8_image7.png","response":2,"category":"Car","background_difficulty":"8","image_path":"images/Car/With_Backgrounds/difficulty8_image7.png","trial_type":"image-button-response","trial_index":32,"time_elapsed":72662,"internal_node_id":"0.0-2.0-0.30"},{"rt":1455,"stimulus":"images/Human/With_Backgrounds/difficulty3_image0.png","response":5,"category":"Human","background_difficulty":"3","image_path":"images/Human/With_Backgrounds/difficulty3_image0.png","trial_type":"image-button-response","trial_index":33,"time_elapsed":74118,"internal_node_id":"0.0-2.0-0.31"},{"rt":2098,"stimulus":"images/Other/With_Backgrounds/difficulty7_image8.png","response":7,"category":"Other","background_difficulty":"7","image_path":"images/Other/With_Backgrounds/difficulty7_image8.png","trial_type":"image-button-response","trial_index":34,"time_elapsed":76218,"internal_node_id":"0.0-2.0-0.32"},{"rt":1241,"stimulus":"images/Human/With_Backgrounds/difficulty7_image2.png","response":5,"category":"Human","background_difficulty":"7","image_path":"images/Human/With_Backgrounds/difficulty7_image2.png","trial_type":"image-button-response","trial_index":35,"time_elapsed":77461,"internal_node_id":"0.0-2.0-0.33"},{"rt":970,"stimulus":"images/Human/With_Backgrounds/difficulty1_image9.png","response":5,"category":"Human","background_difficulty":"1","image_path":"images/Human/With_Backgrounds/difficulty1_image9.png","trial_type":"image-button-response","trial_index":36,"time_elapsed":78433,"internal_node_id":"0.0-2.0-0.34"},{"rt":1353,"stimulus":"images/Broccoli/With_Backgrounds/difficulty3_image7.png","response":1,"category":"Broccoli","background_difficulty":"3","image_path":"images/Broccoli/With_Backgrounds/difficulty3_image7.png","trial_type":"image-button-response","trial_index":37,"time_elapsed":79787,"internal_node_id":"0.0-2.0-0.35"},{"rt":928,"stimulus":"images/Broccoli/With_Backgrounds/difficulty8_image9.png","response":1,"category":"Broccoli","background_difficulty":"8","image_path":"images/Broccoli/With_Backgrounds/difficulty8_image9.png","trial_type":"image-button-response","trial_index":38,"time_elapsed":80718,"internal_node_id":"0.0-2.0-0.36"},{"rt":936,"stimulus":"images/Broccoli/With_Backgrounds/difficulty0_image0.png","response":1,"category":"Broccoli","background_difficulty":"0","image_path":"images/Broccoli/With_Backgrounds/difficulty0_image0.png","trial_type":"image-button-response","trial_index":39,"time_elapsed":81656,"internal_node_id":"0.0-2.0-0.37"},{"rt":1190,"stimulus":"images/Dog/With_Backgrounds/difficulty5_image0.png","response":4,"category":"Dog","background_difficulty":"5","image_path":"images/Dog/With_Backgrounds/difficulty5_image0.png","trial_type":"image-button-response","trial_index":40,"time_elapsed":82848,"internal_node_id":"0.0-2.0-0.38"},{"rt":1130,"stimulus":"images/Broccoli/With_Backgrounds/difficulty6_image5.png","response":1,"category":"Broccoli","background_difficulty":"6","image_path":"images/Broccoli/With_Backgrounds/difficulty6_image5.png","trial_type":"image-button-response","trial_index":41,"time_elapsed":83980,"internal_node_id":"0.0-2.0-0.39"},{"rt":1050,"stimulus":"images/Dog/With_Backgrounds/difficulty3_image3.png","response":4,"category":"Dog","background_difficulty":"3","image_path":"images/Dog/With_Backgrounds/difficulty3_image3.png","trial_type":"image-button-response","trial_index":42,"time_elapsed":85032,"internal_node_id":"0.0-2.0-0.40"},{"rt":1077,"stimulus":"images/Car/With_Backgrounds/difficulty1_image4.png","response":2,"category":"Car","background_difficulty":"1","image_path":"images/Car/With_Backgrounds/difficulty1_image4.png","trial_type":"image-button-response","trial_index":43,"time_elapsed":86111,"internal_node_id":"0.0-2.0-0.41"},{"rt":1612,"stimulus":"images/Broccoli/With_Backgrounds/difficulty4_image8.png","response":1,"category":"Broccoli","background_difficulty":"4","image_path":"images/Broccoli/With_Backgrounds/difficulty4_image8.png","trial_type":"image-button-response","trial_index":44,"time_elapsed":87725,"internal_node_id":"0.0-2.0-0.42"},{"rt":2089,"stimulus":"images/Boat/With_Backgrounds/difficulty0_image4.png","response":0,"category":"Boat","background_difficulty":"0","image_path":"images/Boat/With_Backgrounds/difficulty0_image4.png","trial_type":"image-button-response","trial_index":45,"time_elapsed":89816,"internal_node_id":"0.0-2.0-0.43"},{"rt":1502,"stimulus":"images/Car/With_Backgrounds/difficulty0_image2.png","response":2,"category":"Car","background_difficulty":"0","image_path":"images/Car/With_Backgrounds/difficulty0_image2.png","trial_type":"image-button-response","trial_index":46,"time_elapsed":91321,"internal_node_id":"0.0-2.0-0.44"},{"rt":1160,"stimulus":"images/Human/With_Backgrounds/difficulty5_image5.png","response":5,"category":"Human","background_difficulty":"5","image_path":"images/Human/With_Backgrounds/difficulty5_image5.png","trial_type":"image-button-response","trial_index":47,"time_elapsed":92483,"internal_node_id":"0.0-2.0-0.45"},{"rt":1214,"stimulus":"images/Tree/With_Backgrounds/difficulty4_image3.png","response":6,"category":"Tree","background_difficulty":"4","image_path":"images/Tree/With_Backgrounds/difficulty4_image3.png","trial_type":"image-button-response","trial_index":48,"time_elapsed":93699,"internal_node_id":"0.0-2.0-0.46"},{"rt":873,"stimulus":"images/Tree/With_Backgrounds/difficulty3_image2.png","response":6,"category":"Tree","background_difficulty":"3","image_path":"images/Tree/With_Backgrounds/difficulty3_image2.png","trial_type":"image-button-response","trial_index":49,"time_elapsed":94574,"internal_node_id":"0.0-2.0-0.47"},{"rt":1260,"stimulus":"images/Dog/With_Backgrounds/difficulty7_image2.png","response":4,"category":"Dog","background_difficulty":"7","image_path":"images/Dog/With_Backgrounds/difficulty7_image2.png","trial_type":"image-button-response","trial_index":50,"time_elapsed":95837,"internal_node_id":"0.0-2.0-0.48"},{"rt":1207,"stimulus":"images/Dog/With_Backgrounds/difficulty1_image9.png","response":4,"category":"Dog","background_difficulty":"1","image_path":"images/Dog/With_Backgrounds/difficulty1_image9.png","trial_type":"image-button-response","trial_index":51,"time_elapsed":97047,"internal_node_id":"0.0-2.0-0.49"},{"rt":1063,"stimulus":"images/Human/With_Backgrounds/difficulty4_image1.png","response":5,"category":"Human","background_difficulty":"4","image_path":"images/Human/With_Backgrounds/difficulty4_image1.png","trial_type":"image-button-response","trial_index":52,"time_elapsed":98112,"internal_node_id":"0.0-2.0-0.50"},{"rt":1224,"stimulus":"images/Other/With_Backgrounds/difficulty2_image9.png","response":7,"category":"Other","background_difficulty":"2","image_path":"images/Other/With_Backgrounds/difficulty2_image9.png","trial_type":"image-button-response","trial_index":53,"time_elapsed":99338,"internal_node_id":"0.0-2.0-0.51"},{"rt":1249,"stimulus":"images/Cat/With_Backgrounds/difficulty0_image6.png","response":2,"category":"Cat","background_difficulty":"0","image_path":"images/Cat/With_Backgrounds/difficulty0_image6.png","trial_type":"image-button-response","trial_index":54,"time_elapsed":100589,"internal_node_id":"0.0-2.0-0.52"},{"rt":1951,"stimulus":"images/Cat/With_Backgrounds/difficulty2_image5.png","response":3,"category":"Cat","background_difficulty":"2","image_path":"images/Cat/With_Backgrounds/difficulty2_image5.png","trial_type":"image-button-response","trial_index":55,"time_elapsed":102543,"internal_node_id":"0.0-2.0-0.53"},{"rt":2030,"stimulus":"images/Dog/With_Backgrounds/difficulty6_image5.png","response":4,"category":"Dog","background_difficulty":"6","image_path":"images/Dog/With_Backgrounds/difficulty6_image5.png","trial_type":"image-button-response","trial_index":56,"time_elapsed":104575,"internal_node_id":"0.0-2.0-0.54"},{"rt":1370,"stimulus":"images/Other/With_Backgrounds/difficulty6_image5.png","response":7,"category":"Other","background_difficulty":"6","image_path":"images/Other/With_Backgrounds/difficulty6_image5.png","trial_type":"image-button-response","trial_index":57,"time_elapsed":105947,"internal_node_id":"0.0-2.0-0.55"},{"rt":1357,"stimulus":"images/Car/With_Backgrounds/difficulty7_image5.png","response":2,"category":"Car","background_difficulty":"7","image_path":"images/Car/With_Backgrounds/difficulty7_image5.png","trial_type":"image-button-response","trial_index":58,"time_elapsed":107305,"internal_node_id":"0.0-2.0-0.56"},{"rt":1480,"stimulus":"images/Tree/With_Backgrounds/difficulty0_image7.png","response":6,"category":"Tree","background_difficulty":"0","image_path":"images/Tree/With_Backgrounds/difficulty0_image7.png","trial_type":"image-button-response","trial_index":59,"time_elapsed":108787,"internal_node_id":"0.0-2.0-0.57"},{"rt":1203,"stimulus":"images/Broccoli/With_Backgrounds/difficulty7_image1.png","response":1,"category":"Broccoli","background_difficulty":"7","image_path":"images/Broccoli/With_Backgrounds/difficulty7_image1.png","trial_type":"image-button-response","trial_index":60,"time_elapsed":109992,"internal_node_id":"0.0-2.0-0.58"},{"rt":1454,"stimulus":"images/Other/With_Backgrounds/difficulty3_image0.png","response":7,"category":"Other","background_difficulty":"3","image_path":"images/Other/With_Backgrounds/difficulty3_image0.png","trial_type":"image-button-response","trial_index":61,"time_elapsed":111449,"internal_node_id":"0.0-2.0-0.59"},{"rt":1703,"stimulus":"images/Boat/With_Backgrounds/difficulty6_image9.png","response":0,"category":"Boat","background_difficulty":"6","image_path":"images/Boat/With_Backgrounds/difficulty6_image9.png","trial_type":"image-button-response","trial_index":62,"time_elapsed":113154,"internal_node_id":"0.0-2.0-0.60"},{"rt":1377,"stimulus":"images/Cat/With_Backgrounds/difficulty6_image7.png","response":3,"category":"Cat","background_difficulty":"6","image_path":"images/Cat/With_Backgrounds/difficulty6_image7.png","trial_type":"image-button-response","trial_index":63,"time_elapsed":114533,"internal_node_id":"0.0-2.0-0.61"},{"rt":1071,"stimulus":"images/Car/With_Backgrounds/difficulty5_image9.png","response":2,"category":"Car","background_difficulty":"5","image_path":"images/Car/With_Backgrounds/difficulty5_image9.png","trial_type":"image-button-response","trial_index":64,"time_elapsed":115606,"internal_node_id":"0.0-2.0-0.62"},{"rt":960,"stimulus":"images/Cat/With_Backgrounds/difficulty1_image1.png","response":3,"category":"Cat","background_difficulty":"1","image_path":"images/Cat/With_Backgrounds/difficulty1_image1.png","trial_type":"image-button-response","trial_index":65,"time_elapsed":116569,"internal_node_id":"0.0-2.0-0.63"},{"rt":1260,"stimulus":"images/Car/With_Backgrounds/difficulty4_image0.png","response":4,"category":"Car","background_difficulty":"4","image_path":"images/Car/With_Backgrounds/difficulty4_image0.png","trial_type":"image-button-response","trial_index":66,"time_elapsed":117831,"internal_node_id":"0.0-2.0-0.64"},{"rt":252,"stimulus":"images/Other/With_Backgrounds/difficulty1_image6.png","response":4,"category":"Other","background_difficulty":"1","image_path":"images/Other/With_Backgrounds/difficulty1_image6.png","trial_type":"image-button-response","trial_index":67,"time_elapsed":118085,"internal_node_id":"0.0-2.0-0.65"},{"rt":2573,"stimulus":"images/Broccoli/With_Backgrounds/difficulty1_image6.png","response":1,"category":"Broccoli","background_difficulty":"1","image_path":"images/Broccoli/With_Backgrounds/difficulty1_image6.png","trial_type":"image-button-response","trial_index":68,"time_elapsed":120660,"internal_node_id":"0.0-2.0-0.66"},{"rt":1214,"stimulus":"images/Tree/With_Backgrounds/difficulty7_image8.png","response":6,"category":"Tree","background_difficulty":"7","image_path":"images/Tree/With_Backgrounds/difficulty7_image8.png","trial_type":"image-button-response","trial_index":69,"time_elapsed":121876,"internal_node_id":"0.0-2.0-0.67"},{"rt":1049,"stimulus":"images/Human/With_Backgrounds/difficulty8_image7.png","response":5,"category":"Human","background_difficulty":"8","image_path":"images/Human/With_Backgrounds/difficulty8_image7.png","trial_type":"image-button-response","trial_index":70,"time_elapsed":122927,"internal_node_id":"0.0-2.0-0.68"},{"rt":1749,"stimulus":"images/Cat/With_Backgrounds/difficulty4_image4.png","response":3,"category":"Cat","background_difficulty":"4","image_path":"images/Cat/With_Backgrounds/difficulty4_image4.png","trial_type":"image-button-response","trial_index":71,"time_elapsed":124679,"internal_node_id":"0.0-2.0-0.69"},{"rt":1196,"stimulus":"images/Boat/With_Backgrounds/difficulty7_image8.png","response":0,"category":"Boat","background_difficulty":"7","image_path":"images/Boat/With_Backgrounds/difficulty7_image8.png","trial_type":"image-button-response","trial_index":72,"time_elapsed":125878,"internal_node_id":"0.0-2.0-0.70"},{"rt":1433,"stimulus":"images/Cat/With_Backgrounds/difficulty8_image2.png","response":3,"category":"Cat","background_difficulty":"8","image_path":"images/Cat/With_Backgrounds/difficulty8_image2.png","trial_type":"image-button-response","trial_index":73,"time_elapsed":127313,"internal_node_id":"0.0-2.0-0.71"},{"rt":1073,"stimulus":["<h2>Press the button below to end experiment.</h2><p>Thank you for participating!</p>"],"response":0,"trial_type":"html-button-response","trial_index":74,"time_elapsed":128387,"internal_node_id":"0.0-3.0"}]