[{"success":true,"timeout":false,"failed_images":[],"failed_audio":[],"failed_video":[],"trial_type":"preload","trial_index":0,"time_elapsed":851,"internal_node_id":"0.0-0.0"},{"rt":8610,"stimulus":["<h2>Noisy background image classification</h2><p>In this experiment you will briefly see images on top of colored squares of various sizes.</p><p>Your task is to report what each image is, selecting \"None of the Above\" if none of the given options are correct.</p> <p>The possible options are <strong>Boat</strong>, <strong>Broccoli</strong>, <strong>Car</strong>, <strong>Cat</strong>, <strong>Dog</strong>, <strong>Human</strong>, <strong>Tree</strong>, and <strong>None of the Above</strong>"],"response":0,"trial_type":"html-button-response","trial_index":1,"time_elapsed":9463,"internal_node_id":"0.0-1.0"},{"rt":8603,"stimulus":"images/Other/With_Backgrounds/difficulty3_image4.png","response":7,"category":"Other","background_difficulty":"3","image_path":"images/Other/With_Backgrounds/difficulty3_image4.png","trial_type":"image-button-response","trial_index":2,"time_elapsed":18072,"internal_node_id":"0.0-2.0-0.0"},{"rt":1562,"stimulus":"images/Human/With_Backgrounds/difficulty7_image5.png","response":5,"category":"Human","background_difficulty":"7","image_path":"images/Human/With_Backgrounds/difficulty7_image5.png","trial_type":"image-button-response","trial_index":3,"time_elapsed":19637,"internal_node_id":"0.0-2.0-0.1"},{"rt":1935,"stimulus":"images/Tree/With_Backgrounds/difficulty7_image2.png","response":6,"category":"Tree","background_difficulty":"7","image_path":"images/Tree/With_Backgrounds/difficulty7_image2.png","trial_type":"image-button-response","trial_index":4,"time_elapsed":21575,"internal_node_id":"0.0-2.0-0.2"},{"rt":1314,"stimulus":"images/Broccoli/With_Backgrounds/difficulty3_image4.png","response":1,"category":"Broccoli","background_difficulty":"3","image_path":"images/Broccoli/With_Backgrounds/difficulty3_image4.png","trial_type":"image-button-response","trial_index":5,"time_elapsed":22891,"internal_node_id":"0.0-2.0-0.3"},{"rt":1114,"stimulus":"images/Broccoli/With_Backgrounds/difficulty5_image5.png","response":1,"category":"Broccoli","background_difficulty":"5","image_path":"images/Broccoli/With_Backgrounds/difficulty5_image5.png","trial_type":"image-button-response","trial_index":6,"time_elapsed":24008,"internal_node_id":"0.0-2.0-0.4"},{"rt":1260,"stimulus":"images/Human/With_Backgrounds/difficulty5_image4.png","response":5,"category":"Human","background_difficulty":"5","image_path":"images/Human/With_Backgrounds/difficulty5_image4.png","trial_type":"image-button-response","trial_index":7,"time_elapsed":25271,"internal_node_id":"0.0-2.0-0.5"},{"rt":1903,"stimulus":"images/Boat/With_Backgrounds/difficulty1_image2.png","response":0,"category":"Boat","background_difficulty":"1","image_path":"images/Boat/With_Backgrounds/difficulty1_image2.png","trial_type":"image-button-response","trial_index":8,"time_elapsed":27177,"internal_node_id":"0.0-2.0-0.6"},{"rt":1968,"stimulus":"images/Boat/With_Backgrounds/difficulty6_image5.png","response":0,"category":"Boat","background_difficulty":"6","image_path":"images/Boat/With_Backgrounds/difficulty6_image5.png","trial_type":"image-button-response","trial_index":9,"time_elapsed":29148,"internal_node_id":"0.0-2.0-0.7"},{"rt":1170,"stimulus":"images/Dog/With_Backgrounds/difficulty3_image2.png","response":4,"category":"Dog","background_difficulty":"3","image_path":"images/Dog/With_Backgrounds/difficulty3_image2.png","trial_type":"image-button-response","trial_index":10,"time_elapsed":30321,"internal_node_id":"0.0-2.0-0.8"},{"rt":1354,"stimulus":"images/Broccoli/With_Backgrounds/difficulty7_image9.png","response":1,"category":"Broccoli","background_difficulty":"7","image_path":"images/Broccoli/With_Backgrounds/difficulty7_image9.png","trial_type":"image-button-response","trial_index":11,"time_elapsed":31678,"internal_node_id":"0.0-2.0-0.9"},{"rt":1584,"stimulus":"images/Broccoli/With_Backgrounds/difficulty6_image3.png","response":1,"category":"Broccoli","background_difficulty":"6","image_path":"images/Broccoli/With_Backgrounds/difficulty6_image3.png","trial_type":"image-button-response","trial_index":12,"time_elapsed":33265,"internal_node_id":"0.0-2.0-0.10"},{"rt":1895,"stimulus":"images/Tree/With_Backgrounds/difficulty3_image8.png","response":6,"category":"Tree","background_difficulty":"3","image_path":"images/Tree/With_Backgrounds/difficulty3_image8.png","trial_type":"image-button-response","trial_index":13,"time_elapsed":35164,"internal_node_id":"0.0-2.0-0.11"},{"rt":1186,"stimulus":"images/Car/With_Backgrounds/difficulty8_image7.png","response":2,"category":"Car","background_difficulty":"8","image_path":"images/Car/With_Backgrounds/difficulty8_image7.png","trial_type":"image-button-response","trial_index":14,"time_elapsed":36353,"internal_node_id":"0.0-2.0-0.12"},{"rt":1114,"stimulus":"images/Cat/With_Backgrounds/difficulty4_image0.png","response":3,"category":"Cat","background_difficulty":"4","image_path":"images/Cat/With_Backgrounds/difficulty4_image0.png","trial_type":"image-button-response","trial_index":15,"time_elapsed":37470,"internal_node_id":"0.0-2.0-0.13"},{"rt":1808,"stimulus":"images/Other/With_Backgrounds/difficulty1_image1.png","response":7,"category":"Other","background_difficulty":"1","image_path":"images/Other/With_Backgrounds/difficulty1_image1.png","trial_type":"image-button-response","trial_index":16,"time_elapsed":39281,"internal_node_id":"0.0-2.0-0.14"},{"rt":1178,"stimulus":"images/Cat/With_Backgrounds/difficulty1_image3.png","response":3,"category":"Cat","background_difficulty":"1","image_path":"images/Cat/With_Backgrounds/difficulty1_image3.png","trial_type":"image-button-response","trial_index":17,"time_elapsed":40462,"internal_node_id":"0.0-2.0-0.15"},{"rt":1122,"stimulus":"images/Dog/With_Backgrounds/difficulty2_image8.png","response":4,"category":"Dog","background_difficulty":"2","image_path":"images/Dog/With_Backgrounds/difficulty2_image8.png","trial_type":"image-button-response","trial_index":18,"time_elapsed":41587,"internal_node_id":"0.0-2.0-0.16"},{"rt":947,"stimulus":"images/Dog/With_Backgrounds/difficulty4_image6.png","response":4,"category":"Dog","background_difficulty":"4","image_path":"images/Dog/With_Backgrounds/difficulty4_image6.png","trial_type":"image-button-response","trial_index":19,"time_elapsed":42537,"internal_node_id":"0.0-2.0-0.17"},{"rt":1505,"stimulus":"images/Boat/With_Backgrounds/difficulty7_image0.png","response":0,"category":"Boat","background_difficulty":"7","image_path":"images/Boat/With_Backgrounds/difficulty7_image0.png","trial_type":"image-button-response","trial_index":20,"time_elapsed":44045,"internal_node_id":"0.0-2.0-0.18"},{"rt":1616,"stimulus":"images/Tree/With_Backgrounds/difficulty1_image7.png","response":6,"category":"Tree","background_difficulty":"1","image_path":"images/Tree/With_Backgrounds/difficulty1_image7.png","trial_type":"image-button-response","trial_index":21,"time_elapsed":45664,"internal_node_id":"0.0-2.0-0.19"},{"rt":1658,"stimulus":"images/Other/With_Backgrounds/difficulty6_image9.png","response":7,"category":"Other","background_difficulty":"6","image_path":"images/Other/With_Backgrounds/difficulty6_image9.png","trial_type":"image-button-response","trial_index":22,"time_elapsed":47325,"internal_node_id":"0.0-2.0-0.20"},{"rt":1250,"stimulus":"images/Boat/With_Backgrounds/difficulty2_image8.png","response":0,"category":"Boat","background_difficulty":"2","image_path":"images/Boat/With_Backgrounds/difficulty2_image8.png","trial_type":"image-button-response","trial_index":23,"time_elapsed":48578,"internal_node_id":"0.0-2.0-0.21"},{"rt":1130,"stimulus":"images/Cat/With_Backgrounds/difficulty2_image4.png","response":3,"category":"Cat","background_difficulty":"2","image_path":"images/Cat/With_Backgrounds/difficulty2_image4.png","trial_type":"image-button-response","trial_index":24,"time_elapsed":49711,"internal_node_id":"0.0-2.0-0.22"},{"rt":955,"stimulus":"images/Boat/With_Backgrounds/difficulty0_image7.png","response":0,"category":"Boat","background_difficulty":"0","image_path":"images/Boat/With_Backgrounds/difficulty0_image7.png","trial_type":"image-button-response","trial_index":25,"time_elapsed":50668,"internal_node_id":"0.0-2.0-0.23"},{"rt":1856,"stimulus":"images/Other/With_Backgrounds/difficulty0_image5.png","response":7,"category":"Other","background_difficulty":"0","image_path":"images/Other/With_Backgrounds/difficulty0_image5.png","trial_type":"image-button-response","trial_index":26,"time_elapsed":52527,"internal_node_id":"0.0-2.0-0.24"},{"rt":1338,"stimulus":"images/Human/With_Backgrounds/difficulty1_image3.png","response":5,"category":"Human","background_difficulty":"1","image_path":"images/Human/With_Backgrounds/difficulty1_image3.png","trial_type":"image-button-response","trial_index":27,"time_elapsed":53868,"internal_node_id":"0.0-2.0-0.25"},{"rt":1034,"stimulus":"images/Cat/With_Backgrounds/difficulty5_image9.png","response":3,"category":"Cat","background_difficulty":"5","image_path":"images/Cat/With_Backgrounds/difficulty5_image9.png","trial_type":"image-button-response","trial_index":28,"time_elapsed":54905,"internal_node_id":"0.0-2.0-0.26"},{"rt":883,"stimulus":"images/Cat/With_Backgrounds/difficulty0_image7.png","response":3,"category":"Cat","background_difficulty":"0","image_path":"images/Cat/With_Backgrounds/difficulty0_image7.png","trial_type":"image-button-response","trial_index":29,"time_elapsed":55791,"internal_node_id":"0.0-2.0-0.27"},{"rt":907,"stimulus":"images/Car/With_Backgrounds/difficulty6_image0.png","response":2,"category":"Car","background_difficulty":"6","image_path":"images/Car/With_Backgrounds/difficulty6_image0.png","trial_type":"image-button-response","trial_index":30,"time_elapsed":56701,"internal_node_id":"0.0-2.0-0.28"},{"rt":1227,"stimulus":"images/Boat/With_Backgrounds/difficulty8_image1.png","response":0,"category":"Boat","background_difficulty":"8","image_path":"images/Boat/With_Backgrounds/difficulty8_image1.png","trial_type":"image-button-response","trial_index":31,"time_elapsed":57930,"internal_node_id":"0.0-2.0-0.29"},{"rt":993,"stimulus":"images/Human/With_Backgrounds/difficulty0_image9.png","response":5,"category":"Human","background_difficulty":"0","image_path":"images/Human/With_Backgrounds/difficulty0_image9.png","trial_type":"image-button-response","trial_index":32,"time_elapsed":58926,"internal_node_id":"0.0-2.0-0.30"},{"rt":1020,"stimulus":"images/Dog/With_Backgrounds/difficulty7_image3.png","response":4,"category":"Dog","background_difficulty":"7","image_path":"images/Dog/With_Backgrounds/difficulty7_image3.png","trial_type":"image-button-response","trial_index":33,"time_elapsed":59948,"internal_node_id":"0.0-2.0-0.31"},{"rt":994,"stimulus":"images/Boat/With_Backgrounds/difficulty5_image6.png","response":0,"category":"Boat","background_difficulty":"5","image_path":"images/Boat/With_Backgrounds/difficulty5_image6.png","trial_type":"image-button-response","trial_index":34,"time_elapsed":60946,"internal_node_id":"0.0-2.0-0.32"},{"rt":1010,"stimulus":"images/Dog/With_Backgrounds/difficulty6_image1.png","response":4,"category":"Dog","background_difficulty":"6","image_path":"images/Dog/With_Backgrounds/difficulty6_image1.png","trial_type":"image-button-response","trial_index":35,"time_elapsed":61959,"internal_node_id":"0.0-2.0-0.33"},{"rt":1361,"stimulus":"images/Tree/With_Backgrounds/difficulty8_image5.png","response":6,"category":"Tree","background_difficulty":"8","image_path":"images/Tree/With_Backgrounds/difficulty8_image5.png","trial_type":"image-button-response","trial_index":36,"time_elapsed":63323,"internal_node_id":"0.0-2.0-0.34"},{"rt":1187,"stimulus":"images/Human/With_Backgrounds/difficulty6_image0.png","response":5,"category":"Human","background_difficulty":"6","image_path":"images/Human/With_Backgrounds/difficulty6_image0.png","trial_type":"image-button-response","trial_index":37,"time_elapsed":64513,"internal_node_id":"0.0-2.0-0.35"},{"rt":978,"stimulus":"images/Cat/With_Backgrounds/difficulty6_image2.png","response":3,"category":"Cat","background_difficulty":"6","image_path":"images/Cat/With_Backgrounds/difficulty6_image2.png","trial_type":"image-button-response","trial_index":38,"time_elapsed":65494,"internal_node_id":"0.0-2.0-0.36"},{"rt":1457,"stimulus":"images/Other/With_Backgrounds/difficulty8_image3.png","response":7,"category":"Other","background_difficulty":"8","image_path":"images/Other/With_Backgrounds/difficulty8_image3.png","trial_type":"image-button-response","trial_index":39,"time_elapsed":66954,"internal_node_id":"0.0-2.0-0.37"},{"rt":1155,"stimulus":"images/Dog/With_Backgrounds/difficulty1_image9.png","response":4,"category":"Dog","background_difficulty":"1","image_path":"images/Dog/With_Backgrounds/difficulty1_image9.png","trial_type":"image-button-response","trial_index":40,"time_elapsed":68112,"internal_node_id":"0.0-2.0-0.38"},{"rt":1630,"stimulus":"images/Tree/With_Backgrounds/difficulty4_image0.png","response":6,"category":"Tree","background_difficulty":"4","image_path":"images/Tree/With_Backgrounds/difficulty4_image0.png","trial_type":"image-button-response","trial_index":41,"time_elapsed":69744,"internal_node_id":"0.0-2.0-0.39"},{"rt":1094,"stimulus":"images/Car/With_Backgrounds/difficulty1_image3.png","response":2,"category":"Car","background_difficulty":"1","image_path":"images/Car/With_Backgrounds/difficulty1_image3.png","trial_type":"image-button-response","trial_index":42,"time_elapsed":70839,"internal_node_id":"0.0-2.0-0.40"},{"rt":1357,"stimulus":"images/Broccoli/With_Backgrounds/difficulty8_image1.png","response":1,"category":"Broccoli","background_difficulty":"8","image_path":"images/Broccoli/With_Backgrounds/difficulty8_image1.png","trial_type":"image-button-response","trial_index":43,"time_elapsed":72197,"internal_node_id":"0.0-2.0-0.41"},{"rt":1138,"stimulus":"images/Human/With_Backgrounds/difficulty3_image8.png","response":5,"category":"Human","background_difficulty":"3","image_path":"images/Human/With_Backgrounds/difficulty3_image8.png","trial_type":"image-button-response","trial_index":44,"time_elapsed":73338,"internal_node_id":"0.0-2.0-0.42"},{"rt":1130,"stimulus":"images/Cat/With_Backgrounds/difficulty3_image6.png","response":3,"category":"Cat","background_difficulty":"3","image_path":"images/Cat/With_Backgrounds/difficulty3_image6.png","trial_type":"image-button-response","trial_index":45,"time_elapsed":74471,"internal_node_id":"0.0-2.0-0.43"},{"rt":891,"stimulus":"images/Broccoli/With_Backgrounds/difficulty2_image7.png","response":1,"category":"Broccoli","background_difficulty":"2","image_path":"images/Broccoli/With_Backgrounds/difficulty2_image7.png","trial_type":"image-button-response","trial_index":46,"time_elapsed":75364,"internal_node_id":"0.0-2.0-0.44"},{"rt":1250,"stimulus":"images/Car/With_Backgrounds/difficulty2_image4.png","response":2,"category":"Car","background_difficulty":"2","image_path":"images/Car/With_Backgrounds/difficulty2_image4.png","trial_type":"image-button-response","trial_index":47,"time_elapsed":76616,"internal_node_id":"0.0-2.0-0.45"},{"rt":1346,"stimulus":"images/Broccoli/With_Backgrounds/difficulty4_image6.png","response":1,"category":"Broccoli","background_difficulty":"4","image_path":"images/Broccoli/With_Backgrounds/difficulty4_image6.png","trial_type":"image-button-response","trial_index":48,"time_elapsed":77965,"internal_node_id":"0.0-2.0-0.46"},{"rt":979,"stimulus":"images/Human/With_Backgrounds/difficulty2_image6.png","response":5,"category":"Human","background_difficulty":"2","image_path":"images/Human/With_Backgrounds/difficulty2_image6.png","trial_type":"image-button-response","trial_index":49,"time_elapsed":78947,"internal_node_id":"0.0-2.0-0.47"},{"rt":1435,"stimulus":"images/Dog/With_Backgrounds/difficulty0_image4.png","response":4,"category":"Dog","background_difficulty":"0","image_path":"images/Dog/With_Backgrounds/difficulty0_image4.png","trial_type":"image-button-response","trial_index":50,"time_elapsed":80385,"internal_node_id":"0.0-2.0-0.48"},{"rt":874,"stimulus":"images/Broccoli/With_Backgrounds/difficulty0_image0.png","response":1,"category":"Broccoli","background_difficulty":"0","image_path":"images/Broccoli/With_Backgrounds/difficulty0_image0.png","trial_type":"image-button-response","trial_index":51,"time_elapsed":81261,"internal_node_id":"0.0-2.0-0.49"},{"rt":1305,"stimulus":"images/Dog/With_Backgrounds/difficulty5_image7.png","response":4,"category":"Dog","background_difficulty":"5","image_path":"images/Dog/With_Backgrounds/difficulty5_image7.png","trial_type":"image-button-response","trial_index":52,"time_elapsed":82569,"internal_node_id":"0.0-2.0-0.50"},{"rt":1219,"stimulus":"images/Car/With_Backgrounds/difficulty5_image8.png","response":2,"category":"Car","background_difficulty":"5","image_path":"images/Car/With_Backgrounds/difficulty5_image8.png","trial_type":"image-button-response","trial_index":53,"time_elapsed":83791,"internal_node_id":"0.0-2.0-0.51"},{"rt":1832,"stimulus":"images/Tree/With_Backgrounds/difficulty2_image4.png","response":6,"category":"Tree","background_difficulty":"2","image_path":"images/Tree/With_Backgrounds/difficulty2_image4.png","trial_type":"image-button-response","trial_index":54,"time_elapsed":85626,"internal_node_id":"0.0-2.0-0.52"},{"rt":1138,"stimulus":"images/Tree/With_Backgrounds/difficulty5_image9.png","response":6,"category":"Tree","background_difficulty":"5","image_path":"images/Tree/With_Backgrounds/difficulty5_image9.png","trial_type":"image-button-response","trial_index":55,"time_elapsed":86767,"internal_node_id":"0.0-2.0-0.53"},{"rt":1075,"stimulus":"images/Car/With_Backgrounds/difficulty0_image6.png","response":2,"category":"Car","background_difficulty":"0","image_path":"images/Car/With_Backgrounds/difficulty0_image6.png","trial_type":"image-button-response","trial_index":56,"time_elapsed":87845,"internal_node_id":"0.0-2.0-0.54"},{"rt":1217,"stimulus":"images/Boat/With_Backgrounds/difficulty4_image9.png","response":0,"category":"Boat","background_difficulty":"4","image_path":"images/Boat/With_Backgrounds/difficulty4_image9.png","trial_type":"image-button-response","trial_index":57,"time_elapsed":89065,"internal_node_id":"0.0-2.0-0.55"},{"rt":1712,"stimulus":"images/Human/With_Backgrounds/difficulty4_image2.png","response":5,"category":"Human","background_difficulty":"4","image_path":"images/Human/With_Backgrounds/difficulty4_image2.png","trial_type":"image-button-response","trial_index":58,"time_elapsed":90780,"internal_node_id":"0.0-2.0-0.56"},{"rt":1003,"stimulus":"images/Dog/With_Backgrounds/difficulty8_image0.png","response":4,"category":"Dog","background_difficulty":"8","image_path":"images/Dog/With_Backgrounds/difficulty8_image0.png","trial_type":"image-button-response","trial_index":59,"time_elapsed":91786,"internal_node_id":"0.0-2.0-0.57"},{"rt":923,"stimulus":"images/Cat/With_Backgrounds/difficulty7_image8.png","response":3,"category":"Cat","background_difficulty":"7","image_path":"images/Cat/With_Backgrounds/difficulty7_image8.png","trial_type":"image-button-response","trial_index":60,"time_elapsed":92712,"internal_node_id":"0.0-2.0-0.58"},{"rt":2423,"stimulus":"images/Car/With_Backgrounds/difficulty7_image1.png","response":2,"category":"Car","background_difficulty":"7","image_path":"images/Car/With_Backgrounds/difficulty7_image1.png","trial_type":"image-button-response","trial_index":61,"time_elapsed":95137,"internal_node_id":"0.0-2.0-0.59"},{"rt":1505,"stimulus":"images/Other/With_Backgrounds/difficulty4_image8.png","response":7,"category":"Other","background_difficulty":"4","image_path":"images/Other/With_Backgrounds/difficulty4_image8.png","trial_type":"image-button-response","trial_index":62,"time_elapsed":96645,"internal_node_id":"0.0-2.0-0.60"},{"rt":1075,"stimulus":"images/Human/With_Backgrounds/difficulty8_image1.png","response":5,"category":"Human","background_difficulty":"8","image_path":"images/Human/With_Backgrounds/difficulty8_image1.png","trial_type":"image-button-response","trial_index":63,"time_elapsed":97723,"internal_node_id":"0.0-2.0-0.61"},{"rt":1050,"stimulus":"images/Cat/With_Backgrounds/difficulty8_image5.png","response":3,"category":"Cat","background_difficulty":"8","image_path":"images/Cat/With_Backgrounds/difficulty8_image5.png","trial_type":"image-button-response","trial_index":64,"time_elapsed":98776,"internal_node_id":"0.0-2.0-0.62"},{"rt":1872,"stimulus":"images/Tree/With_Backgrounds/difficulty6_image6.png","response":6,"category":"Tree","background_difficulty":"6","image_path":"images/Tree/With_Backgrounds/difficulty6_image6.png","trial_type":"image-button-response","trial_index":65,"time_elapsed":100651,"internal_node_id":"0.0-2.0-0.63"},{"rt":1058,"stimulus":"images/Other/With_Backgrounds/difficulty2_image7.png","response":7,"category":"Other","background_difficulty":"2","image_path":"images/Other/With_Backgrounds/difficulty2_image7.png","trial_type":"image-button-response","trial_index":66,"time_elapsed":101712,"internal_node_id":"0.0-2.0-0.64"},{"rt":1275,"stimulus":"images/Car/With_Backgrounds/difficulty3_image9.png","response":2,"category":"Car","background_difficulty":"3","image_path":"images/Car/With_Backgrounds/difficulty3_image9.png","trial_type":"image-button-response","trial_index":67,"time_elapsed":102990,"internal_node_id":"0.0-2.0-0.65"},{"rt":1433,"stimulus":"images/Other/With_Backgrounds/difficulty7_image2.png","response":7,"category":"Other","background_difficulty":"7","image_path":"images/Other/With_Backgrounds/difficulty7_image2.png","trial_type":"image-button-response","trial_index":68,"time_elapsed":104426,"internal_node_id":"0.0-2.0-0.66"},{"rt":1241,"stimulus":"images/Boat/With_Backgrounds/difficulty3_image4.png","response":0,"category":"Boat","background_difficulty":"3","image_path":"images/Boat/With_Backgrounds/difficulty3_image4.png","trial_type":"image-button-response","trial_index":69,"time_elapsed":105670,"internal_node_id":"0.0-2.0-0.67"},{"rt":1059,"stimulus":"images/Tree/With_Backgrounds/difficulty0_image3.png","response":6,"category":"Tree","background_difficulty":"0","image_path":"images/Tree/With_Backgrounds/difficulty0_image3.png","trial_type":"image-button-response","trial_index":70,"time_elapsed":106732,"internal_node_id":"0.0-2.0-0.68"},{"rt":1042,"stimulus":"images/Broccoli/With_Backgrounds/difficulty1_image8.png","response":1,"category":"Broccoli","background_difficulty":"1","image_path":"images/Broccoli/With_Backgrounds/difficulty1_image8.png","trial_type":"image-button-response","trial_index":71,"time_elapsed":107777,"internal_node_id":"0.0-2.0-0.69"},{"rt":1417,"stimulus":"images/Other/With_Backgrounds/difficulty5_image0.png","response":7,"category":"Other","background_difficulty":"5","image_path":"images/Other/With_Backgrounds/difficulty5_image0.png","trial_type":"image-button-response","trial_index":72,"time_elapsed":109197,"internal_node_id":"0.0-2.0-0.70"},{"rt":1417,"stimulus":"images/Car/With_Backgrounds/difficulty4_image5.png","response":2,"category":"Car","background_difficulty":"4","image_path":"images/Car/With_Backgrounds/difficulty4_image5.png","trial_type":"image-button-response","trial_index":73,"time_elapsed":110617,"internal_node_id":"0.0-2.0-0.71"},{"rt":931,"stimulus":["<h2>Press the button below to end experiment.</h2><p>Thank you for participating!</p>"],"response":0,"trial_type":"html-button-response","trial_index":74,"time_elapsed":111551,"internal_node_id":"0.0-3.0"}]