[{"success":true,"timeout":false,"failed_images":[],"failed_audio":[],"failed_video":[],"trial_type":"preload","trial_index":0,"time_elapsed":2435,"internal_node_id":"0.0-0.0"},{"rt":12385,"stimulus":["<h2>Noisy background image classification</h2><p>In this experiment you will briefly see images on top of colored squares of various sizes.</p><p>Your task is to report what each image is, selecting \"None of the Above\" if none of the given options are correct.</p> <p>The possible options are <strong>Boat</strong>, <strong>Broccoli</strong>, <strong>Car</strong>, <strong>Cat</strong>, <strong>Dog</strong>, <strong>Human</strong>, <strong>Tree</strong>, and <strong>None of the Above</strong>"],"response":0,"trial_type":"html-button-response","trial_index":1,"time_elapsed":14821,"internal_node_id":"0.0-1.0"},{"rt":1783,"stimulus":"images/Tree/With_Backgrounds/difficulty8_image6.png","response":6,"category":"Tree","background_difficulty":"8","image_path":"images/Tree/With_Backgrounds/difficulty8_image6.png","trial_type":"image-button-response","trial_index":2,"time_elapsed":16610,"internal_node_id":"0.0-2.0-0.0"},{"rt":1618,"stimulus":"images/Boat/With_Backgrounds/difficulty8_image6.png","response":0,"category":"Boat","background_difficulty":"8","image_path":"images/Boat/With_Backgrounds/difficulty8_image6.png","trial_type":"image-button-response","trial_index":3,"time_elapsed":18230,"internal_node_id":"0.0-2.0-0.1"},{"rt":1295,"stimulus":"images/Dog/With_Backgrounds/difficulty6_image0.png","response":4,"category":"Dog","background_difficulty":"6","image_path":"images/Dog/With_Backgrounds/difficulty6_image0.png","trial_type":"image-button-response","trial_index":4,"time_elapsed":19527,"internal_node_id":"0.0-2.0-0.2"},{"rt":1868,"stimulus":"images/Tree/With_Backgrounds/difficulty1_image4.png","response":6,"category":"Tree","background_difficulty":"1","image_path":"images/Tree/With_Backgrounds/difficulty1_image4.png","trial_type":"image-button-response","trial_index":5,"time_elapsed":21396,"internal_node_id":"0.0-2.0-0.3"},{"rt":1668,"stimulus":"images/Broccoli/With_Backgrounds/difficulty1_image6.png","response":1,"category":"Broccoli","background_difficulty":"1","image_path":"images/Broccoli/With_Backgrounds/difficulty1_image6.png","trial_type":"image-button-response","trial_index":6,"time_elapsed":23065,"internal_node_id":"0.0-2.0-0.4"},{"rt":1675,"stimulus":"images/Boat/With_Backgrounds/difficulty3_image7.png","response":0,"category":"Boat","background_difficulty":"3","image_path":"images/Boat/With_Backgrounds/difficulty3_image7.png","trial_type":"image-button-response","trial_index":7,"time_elapsed":24742,"internal_node_id":"0.0-2.0-0.5"},{"rt":1417,"stimulus":"images/Car/With_Backgrounds/difficulty2_image8.png","response":2,"category":"Car","background_difficulty":"2","image_path":"images/Car/With_Backgrounds/difficulty2_image8.png","trial_type":"image-button-response","trial_index":8,"time_elapsed":26161,"internal_node_id":"0.0-2.0-0.6"},{"rt":1553,"stimulus":"images/Broccoli/With_Backgrounds/difficulty0_image0.png","response":1,"category":"Broccoli","background_difficulty":"0","image_path":"images/Broccoli/With_Backgrounds/difficulty0_image0.png","trial_type":"image-button-response","trial_index":9,"time_elapsed":27715,"internal_node_id":"0.0-2.0-0.7"},{"rt":1394,"stimulus":"images/Cat/With_Backgrounds/difficulty4_image4.png","response":3,"category":"Cat","background_difficulty":"4","image_path":"images/Cat/With_Backgrounds/difficulty4_image4.png","trial_type":"image-button-response","trial_index":10,"time_elapsed":29110,"internal_node_id":"0.0-2.0-0.8"},{"rt":2624,"stimulus":"images/Other/With_Backgrounds/difficulty1_image9.png","response":7,"category":"Other","background_difficulty":"1","image_path":"images/Other/With_Backgrounds/difficulty1_image9.png","trial_type":"image-button-response","trial_index":11,"time_elapsed":31736,"internal_node_id":"0.0-2.0-0.9"},{"rt":1314,"stimulus":"images/Cat/With_Backgrounds/difficulty8_image2.png","response":3,"category":"Cat","background_difficulty":"8","image_path":"images/Cat/With_Backgrounds/difficulty8_image2.png","trial_type":"image-button-response","trial_index":12,"time_elapsed":33051,"internal_node_id":"0.0-2.0-0.10"},{"rt":2529,"stimulus":"images/Other/With_Backgrounds/difficulty7_image2.png","response":7,"category":"Other","background_difficulty":"7","image_path":"images/Other/With_Backgrounds/difficulty7_image2.png","trial_type":"image-button-response","trial_index":13,"time_elapsed":35581,"internal_node_id":"0.0-2.0-0.11"},{"rt":1756,"stimulus":"images/Human/With_Backgrounds/difficulty3_image3.png","response":5,"category":"Human","background_difficulty":"3","image_path":"images/Human/With_Backgrounds/difficulty3_image3.png","trial_type":"image-button-response","trial_index":14,"time_elapsed":37338,"internal_node_id":"0.0-2.0-0.12"},{"rt":1150,"stimulus":"images/Tree/With_Backgrounds/difficulty3_image1.png","response":6,"category":"Tree","background_difficulty":"3","image_path":"images/Tree/With_Backgrounds/difficulty3_image1.png","trial_type":"image-button-response","trial_index":15,"time_elapsed":38490,"internal_node_id":"0.0-2.0-0.13"},{"rt":1345,"stimulus":"images/Cat/With_Backgrounds/difficulty7_image6.png","response":3,"category":"Cat","background_difficulty":"7","image_path":"images/Cat/With_Backgrounds/difficulty7_image6.png","trial_type":"image-button-response","trial_index":16,"time_elapsed":39836,"internal_node_id":"0.0-2.0-0.14"},{"rt":1087,"stimulus":"images/Cat/With_Backgrounds/difficulty6_image8.png","response":3,"category":"Cat","background_difficulty":"6","image_path":"images/Cat/With_Backgrounds/difficulty6_image8.png","trial_type":"image-button-response","trial_index":17,"time_elapsed":40924,"internal_node_id":"0.0-2.0-0.15"},{"rt":1329,"stimulus":"images/Human/With_Backgrounds/difficulty4_image6.png","response":5,"category":"Human","background_difficulty":"4","image_path":"images/Human/With_Backgrounds/difficulty4_image6.png","trial_type":"image-button-response","trial_index":18,"time_elapsed":42254,"internal_node_id":"0.0-2.0-0.16"},{"rt":1699,"stimulus":"images/Cat/With_Backgrounds/difficulty0_image7.png","response":3,"category":"Cat","background_difficulty":"0","image_path":"images/Cat/With_Backgrounds/difficulty0_image7.png","trial_type":"image-button-response","trial_index":19,"time_elapsed":43953,"internal_node_id":"0.0-2.0-0.17"},{"rt":1137,"stimulus":"images/Human/With_Backgrounds/difficulty6_image8.png","response":5,"category":"Human","background_difficulty":"6","image_path":"images/Human/With_Backgrounds/difficulty6_image8.png","trial_type":"image-button-response","trial_index":20,"time_elapsed":45091,"internal_node_id":"0.0-2.0-0.18"},{"rt":1384,"stimulus":"images/Boat/With_Backgrounds/difficulty7_image4.png","response":0,"category":"Boat","background_difficulty":"7","image_path":"images/Boat/With_Backgrounds/difficulty7_image4.png","trial_type":"image-button-response","trial_index":21,"time_elapsed":46477,"internal_node_id":"0.0-2.0-0.19"},{"rt":1158,"stimulus":"images/Human/With_Backgrounds/difficulty7_image4.png","response":5,"category":"Human","background_difficulty":"7","image_path":"images/Human/With_Backgrounds/difficulty7_image4.png","trial_type":"image-button-response","trial_index":22,"time_elapsed":47637,"internal_node_id":"0.0-2.0-0.20"},{"rt":1515,"stimulus":"images/Broccoli/With_Backgrounds/difficulty6_image3.png","response":1,"category":"Broccoli","background_difficulty":"6","image_path":"images/Broccoli/With_Backgrounds/difficulty6_image3.png","trial_type":"image-button-response","trial_index":23,"time_elapsed":49153,"internal_node_id":"0.0-2.0-0.21"},{"rt":1658,"stimulus":"images/Other/With_Backgrounds/difficulty5_image0.png","response":7,"category":"Other","background_difficulty":"5","image_path":"images/Other/With_Backgrounds/difficulty5_image0.png","trial_type":"image-button-response","trial_index":24,"time_elapsed":50812,"internal_node_id":"0.0-2.0-0.22"},{"rt":1184,"stimulus":"images/Car/With_Backgrounds/difficulty4_image1.png","response":2,"category":"Car","background_difficulty":"4","image_path":"images/Car/With_Backgrounds/difficulty4_image1.png","trial_type":"image-button-response","trial_index":25,"time_elapsed":51998,"internal_node_id":"0.0-2.0-0.23"},{"rt":1747,"stimulus":"images/Broccoli/With_Backgrounds/difficulty5_image8.png","response":1,"category":"Broccoli","background_difficulty":"5","image_path":"images/Broccoli/With_Backgrounds/difficulty5_image8.png","trial_type":"image-button-response","trial_index":26,"time_elapsed":53746,"internal_node_id":"0.0-2.0-0.24"},{"rt":1111,"stimulus":"images/Human/With_Backgrounds/difficulty2_image2.png","response":5,"category":"Human","background_difficulty":"2","image_path":"images/Human/With_Backgrounds/difficulty2_image2.png","trial_type":"image-button-response","trial_index":27,"time_elapsed":54859,"internal_node_id":"0.0-2.0-0.25"},{"rt":1240,"stimulus":"images/Dog/With_Backgrounds/difficulty7_image5.png","response":4,"category":"Dog","background_difficulty":"7","image_path":"images/Dog/With_Backgrounds/difficulty7_image5.png","trial_type":"image-button-response","trial_index":28,"time_elapsed":56100,"internal_node_id":"0.0-2.0-0.26"},{"rt":1360,"stimulus":"images/Cat/With_Backgrounds/difficulty1_image1.png","response":3,"category":"Cat","background_difficulty":"1","image_path":"images/Cat/With_Backgrounds/difficulty1_image1.png","trial_type":"image-button-response","trial_index":29,"time_elapsed":57462,"internal_node_id":"0.0-2.0-0.27"},{"rt":1385,"stimulus":"images/Dog/With_Backgrounds/difficulty3_image3.png","response":4,"category":"Dog","background_difficulty":"3","image_path":"images/Dog/With_Backgrounds/difficulty3_image3.png","trial_type":"image-button-response","trial_index":30,"time_elapsed":58848,"internal_node_id":"0.0-2.0-0.28"},{"rt":1769,"stimulus":"images/Other/With_Backgrounds/difficulty8_image7.png","response":7,"category":"Other","background_difficulty":"8","image_path":"images/Other/With_Backgrounds/difficulty8_image7.png","trial_type":"image-button-response","trial_index":31,"time_elapsed":60619,"internal_node_id":"0.0-2.0-0.29"},{"rt":1775,"stimulus":"images/Car/With_Backgrounds/difficulty7_image2.png","response":2,"category":"Car","background_difficulty":"7","image_path":"images/Car/With_Backgrounds/difficulty7_image2.png","trial_type":"image-button-response","trial_index":32,"time_elapsed":62395,"internal_node_id":"0.0-2.0-0.30"},{"rt":1206,"stimulus":"images/Cat/With_Backgrounds/difficulty5_image9.png","response":3,"category":"Cat","background_difficulty":"5","image_path":"images/Cat/With_Backgrounds/difficulty5_image9.png","trial_type":"image-button-response","trial_index":33,"time_elapsed":63602,"internal_node_id":"0.0-2.0-0.31"},{"rt":1339,"stimulus":"images/Broccoli/With_Backgrounds/difficulty3_image2.png","response":1,"category":"Broccoli","background_difficulty":"3","image_path":"images/Broccoli/With_Backgrounds/difficulty3_image2.png","trial_type":"image-button-response","trial_index":34,"time_elapsed":64942,"internal_node_id":"0.0-2.0-0.32"},{"rt":1980,"stimulus":"images/Car/With_Backgrounds/difficulty1_image6.png","response":2,"category":"Car","background_difficulty":"1","image_path":"images/Car/With_Backgrounds/difficulty1_image6.png","trial_type":"image-button-response","trial_index":35,"time_elapsed":66924,"internal_node_id":"0.0-2.0-0.33"},{"rt":1522,"stimulus":"images/Other/With_Backgrounds/difficulty2_image1.png","response":7,"category":"Other","background_difficulty":"2","image_path":"images/Other/With_Backgrounds/difficulty2_image1.png","trial_type":"image-button-response","trial_index":36,"time_elapsed":68447,"internal_node_id":"0.0-2.0-0.34"},{"rt":1329,"stimulus":"images/Boat/With_Backgrounds/difficulty4_image0.png","response":0,"category":"Boat","background_difficulty":"4","image_path":"images/Boat/With_Backgrounds/difficulty4_image0.png","trial_type":"image-button-response","trial_index":37,"time_elapsed":69777,"internal_node_id":"0.0-2.0-0.35"},{"rt":1278,"stimulus":"images/Tree/With_Backgrounds/difficulty6_image7.png","response":6,"category":"Tree","background_difficulty":"6","image_path":"images/Tree/With_Backgrounds/difficulty6_image7.png","trial_type":"image-button-response","trial_index":38,"time_elapsed":71056,"internal_node_id":"0.0-2.0-0.36"},{"rt":1347,"stimulus":"images/Boat/With_Backgrounds/difficulty1_image8.png","response":0,"category":"Boat","background_difficulty":"1","image_path":"images/Boat/With_Backgrounds/difficulty1_image8.png","trial_type":"image-button-response","trial_index":39,"time_elapsed":72404,"internal_node_id":"0.0-2.0-0.37"},{"rt":1070,"stimulus":"images/Dog/With_Backgrounds/difficulty0_image7.png","response":4,"category":"Dog","background_difficulty":"0","image_path":"images/Dog/With_Backgrounds/difficulty0_image7.png","trial_type":"image-button-response","trial_index":40,"time_elapsed":73476,"internal_node_id":"0.0-2.0-0.38"},{"rt":1530,"stimulus":"images/Tree/With_Backgrounds/difficulty7_image8.png","response":6,"category":"Tree","background_difficulty":"7","image_path":"images/Tree/With_Backgrounds/difficulty7_image8.png","trial_type":"image-button-response","trial_index":41,"time_elapsed":75007,"internal_node_id":"0.0-2.0-0.39"},{"rt":1973,"stimulus":"images/Cat/With_Backgrounds/difficulty3_image0.png","response":3,"category":"Cat","background_difficulty":"3","image_path":"images/Cat/With_Backgrounds/difficulty3_image0.png","trial_type":"image-button-response","trial_index":42,"time_elapsed":76982,"internal_node_id":"0.0-2.0-0.40"},{"rt":1248,"stimulus":"images/Car/With_Backgrounds/difficulty6_image4.png","response":2,"category":"Car","background_difficulty":"6","image_path":"images/Car/With_Backgrounds/difficulty6_image4.png","trial_type":"image-button-response","trial_index":43,"time_elapsed":78231,"internal_node_id":"0.0-2.0-0.41"},{"rt":1167,"stimulus":"images/Human/With_Backgrounds/difficulty1_image5.png","response":5,"category":"Human","background_difficulty":"1","image_path":"images/Human/With_Backgrounds/difficulty1_image5.png","trial_type":"image-button-response","trial_index":44,"time_elapsed":79399,"internal_node_id":"0.0-2.0-0.42"},{"rt":1287,"stimulus":"images/Boat/With_Backgrounds/difficulty5_image2.png","response":0,"category":"Boat","background_difficulty":"5","image_path":"images/Boat/With_Backgrounds/difficulty5_image2.png","trial_type":"image-button-response","trial_index":45,"time_elapsed":80688,"internal_node_id":"0.0-2.0-0.43"},{"rt":1354,"stimulus":"images/Car/With_Backgrounds/difficulty5_image5.png","response":2,"category":"Car","background_difficulty":"5","image_path":"images/Car/With_Backgrounds/difficulty5_image5.png","trial_type":"image-button-response","trial_index":46,"time_elapsed":82043,"internal_node_id":"0.0-2.0-0.44"},{"rt":1119,"stimulus":"images/Car/With_Backgrounds/difficulty0_image7.png","response":2,"category":"Car","background_difficulty":"0","image_path":"images/Car/With_Backgrounds/difficulty0_image7.png","trial_type":"image-button-response","trial_index":47,"time_elapsed":83163,"internal_node_id":"0.0-2.0-0.45"},{"rt":1530,"stimulus":"images/Broccoli/With_Backgrounds/difficulty2_image4.png","response":1,"category":"Broccoli","background_difficulty":"2","image_path":"images/Broccoli/With_Backgrounds/difficulty2_image4.png","trial_type":"image-button-response","trial_index":48,"time_elapsed":84694,"internal_node_id":"0.0-2.0-0.46"},{"rt":1271,"stimulus":"images/Dog/With_Backgrounds/difficulty1_image9.png","response":4,"category":"Dog","background_difficulty":"1","image_path":"images/Dog/With_Backgrounds/difficulty1_image9.png","trial_type":"image-button-response","trial_index":49,"time_elapsed":85967,"internal_node_id":"0.0-2.0-0.47"},{"rt":1370,"stimulus":"images/Tree/With_Backgrounds/difficulty5_image2.png","response":6,"category":"Tree","background_difficulty":"5","image_path":"images/Tree/With_Backgrounds/difficulty5_image2.png","trial_type":"image-button-response","trial_index":50,"time_elapsed":87338,"internal_node_id":"0.0-2.0-0.48"},{"rt":1369,"stimulus":"images/Other/With_Backgrounds/difficulty6_image8.png","response":7,"category":"Other","background_difficulty":"6","image_path":"images/Other/With_Backgrounds/difficulty6_image8.png","trial_type":"image-button-response","trial_index":51,"time_elapsed":88708,"internal_node_id":"0.0-2.0-0.49"},{"rt":1304,"stimulus":"images/Broccoli/With_Backgrounds/difficulty7_image7.png","response":1,"category":"Broccoli","background_difficulty":"7","image_path":"images/Broccoli/With_Backgrounds/difficulty7_image7.png","trial_type":"image-button-response","trial_index":52,"time_elapsed":90013,"internal_node_id":"0.0-2.0-0.50"},{"rt":1224,"stimulus":"images/Car/With_Backgrounds/difficulty3_image0.png","response":2,"category":"Car","background_difficulty":"3","image_path":"images/Car/With_Backgrounds/difficulty3_image0.png","trial_type":"image-button-response","trial_index":53,"time_elapsed":91239,"internal_node_id":"0.0-2.0-0.51"},{"rt":1197,"stimulus":"images/Boat/With_Backgrounds/difficulty0_image1.png","response":0,"category":"Boat","background_difficulty":"0","image_path":"images/Boat/With_Backgrounds/difficulty0_image1.png","trial_type":"image-button-response","trial_index":54,"time_elapsed":92436,"internal_node_id":"0.0-2.0-0.52"},{"rt":1509,"stimulus":"images/Other/With_Backgrounds/difficulty4_image4.png","response":7,"category":"Other","background_difficulty":"4","image_path":"images/Other/With_Backgrounds/difficulty4_image4.png","trial_type":"image-button-response","trial_index":55,"time_elapsed":93946,"internal_node_id":"0.0-2.0-0.53"},{"rt":1385,"stimulus":"images/Boat/With_Backgrounds/difficulty2_image5.png","response":0,"category":"Boat","background_difficulty":"2","image_path":"images/Boat/With_Backgrounds/difficulty2_image5.png","trial_type":"image-button-response","trial_index":56,"time_elapsed":95332,"internal_node_id":"0.0-2.0-0.54"},{"rt":1109,"stimulus":"images/Dog/With_Backgrounds/difficulty8_image1.png","response":4,"category":"Dog","background_difficulty":"8","image_path":"images/Dog/With_Backgrounds/difficulty8_image1.png","trial_type":"image-button-response","trial_index":57,"time_elapsed":96442,"internal_node_id":"0.0-2.0-0.55"},{"rt":1081,"stimulus":"images/Human/With_Backgrounds/difficulty8_image9.png","response":5,"category":"Human","background_difficulty":"8","image_path":"images/Human/With_Backgrounds/difficulty8_image9.png","trial_type":"image-button-response","trial_index":58,"time_elapsed":97524,"internal_node_id":"0.0-2.0-0.56"},{"rt":1353,"stimulus":"images/Other/With_Backgrounds/difficulty0_image5.png","response":7,"category":"Other","background_difficulty":"0","image_path":"images/Other/With_Backgrounds/difficulty0_image5.png","trial_type":"image-button-response","trial_index":59,"time_elapsed":98878,"internal_node_id":"0.0-2.0-0.57"},{"rt":1231,"stimulus":"images/Broccoli/With_Backgrounds/difficulty8_image1.png","response":1,"category":"Broccoli","background_difficulty":"8","image_path":"images/Broccoli/With_Backgrounds/difficulty8_image1.png","trial_type":"image-button-response","trial_index":60,"time_elapsed":100111,"internal_node_id":"0.0-2.0-0.58"},{"rt":1321,"stimulus":"images/Car/With_Backgrounds/difficulty8_image9.png","response":2,"category":"Car","background_difficulty":"8","image_path":"images/Car/With_Backgrounds/difficulty8_image9.png","trial_type":"image-button-response","trial_index":61,"time_elapsed":101434,"internal_node_id":"0.0-2.0-0.59"},{"rt":1062,"stimulus":"images/Dog/With_Backgrounds/difficulty5_image8.png","response":4,"category":"Dog","background_difficulty":"5","image_path":"images/Dog/With_Backgrounds/difficulty5_image8.png","trial_type":"image-button-response","trial_index":62,"time_elapsed":102497,"internal_node_id":"0.0-2.0-0.60"},{"rt":1271,"stimulus":"images/Tree/With_Backgrounds/difficulty0_image3.png","response":6,"category":"Tree","background_difficulty":"0","image_path":"images/Tree/With_Backgrounds/difficulty0_image3.png","trial_type":"image-button-response","trial_index":63,"time_elapsed":103770,"internal_node_id":"0.0-2.0-0.61"},{"rt":1305,"stimulus":"images/Human/With_Backgrounds/difficulty0_image0.png","response":5,"category":"Human","background_difficulty":"0","image_path":"images/Human/With_Backgrounds/difficulty0_image0.png","trial_type":"image-button-response","trial_index":64,"time_elapsed":105076,"internal_node_id":"0.0-2.0-0.62"},{"rt":1246,"stimulus":"images/Other/With_Backgrounds/difficulty3_image6.png","response":7,"category":"Other","background_difficulty":"3","image_path":"images/Other/With_Backgrounds/difficulty3_image6.png","trial_type":"image-button-response","trial_index":65,"time_elapsed":106323,"internal_node_id":"0.0-2.0-0.63"},{"rt":1266,"stimulus":"images/Tree/With_Backgrounds/difficulty4_image9.png","response":6,"category":"Tree","background_difficulty":"4","image_path":"images/Tree/With_Backgrounds/difficulty4_image9.png","trial_type":"image-button-response","trial_index":66,"time_elapsed":107590,"internal_node_id":"0.0-2.0-0.64"},{"rt":1571,"stimulus":"images/Dog/With_Backgrounds/difficulty4_image4.png","response":4,"category":"Dog","background_difficulty":"4","image_path":"images/Dog/With_Backgrounds/difficulty4_image4.png","trial_type":"image-button-response","trial_index":67,"time_elapsed":109162,"internal_node_id":"0.0-2.0-0.65"},{"rt":926,"stimulus":"images/Dog/With_Backgrounds/difficulty2_image6.png","response":4,"category":"Dog","background_difficulty":"2","image_path":"images/Dog/With_Backgrounds/difficulty2_image6.png","trial_type":"image-button-response","trial_index":68,"time_elapsed":110089,"internal_node_id":"0.0-2.0-0.66"},{"rt":1216,"stimulus":"images/Boat/With_Backgrounds/difficulty6_image9.png","response":0,"category":"Boat","background_difficulty":"6","image_path":"images/Boat/With_Backgrounds/difficulty6_image9.png","trial_type":"image-button-response","trial_index":69,"time_elapsed":111306,"internal_node_id":"0.0-2.0-0.67"},{"rt":1700,"stimulus":"images/Broccoli/With_Backgrounds/difficulty4_image5.png","response":1,"category":"Broccoli","background_difficulty":"4","image_path":"images/Broccoli/With_Backgrounds/difficulty4_image5.png","trial_type":"image-button-response","trial_index":70,"time_elapsed":113007,"internal_node_id":"0.0-2.0-0.68"},{"rt":1102,"stimulus":"images/Tree/With_Backgrounds/difficulty2_image5.png","response":6,"category":"Tree","background_difficulty":"2","image_path":"images/Tree/With_Backgrounds/difficulty2_image5.png","trial_type":"image-button-response","trial_index":71,"time_elapsed":114110,"internal_node_id":"0.0-2.0-0.69"},{"rt":1006,"stimulus":"images/Human/With_Backgrounds/difficulty5_image7.png","response":5,"category":"Human","background_difficulty":"5","image_path":"images/Human/With_Backgrounds/difficulty5_image7.png","trial_type":"image-button-response","trial_index":72,"time_elapsed":115118,"internal_node_id":"0.0-2.0-0.70"},{"rt":1103,"stimulus":"images/Cat/With_Backgrounds/difficulty2_image3.png","response":3,"category":"Cat","background_difficulty":"2","image_path":"images/Cat/With_Backgrounds/difficulty2_image3.png","trial_type":"image-button-response","trial_index":73,"time_elapsed":116222,"internal_node_id":"0.0-2.0-0.71"},{"rt":998,"stimulus":["<h2>Press the button below to end experiment.</h2><p>Thank you for participating!</p>"],"response":0,"trial_type":"html-button-response","trial_index":74,"time_elapsed":117221,"internal_node_id":"0.0-3.0"}]